delay,freq,condition,trials.thisRepN,trials.thisTrialN,trials.thisN,trials.thisIndex,fixation.started,polygon.started,key_resp.started,fixation.stopped,key_resp.keys,key_resp.rt,sound_1.started,sound_1.stopped,text.started,textbox.started,button.started,textbox.text,button.numClicks,button.timesOn,button.timesOff,participant,session,date,expName,psychopyVersion,frameRate,
0.4,1000,exp,0,0,0,10,17.489841624999826,18.465417792000153,18.465417792000153,18.48886104200028,space,3.676135500001692,22.56575524966526,22.867163957998855,22.867163957998855,22.867163957998855,22.867163957998855,400,1,[27.07442820899996],[27.07443074999901],tanmayi,001,2022-11-10_10h57.33.940,lab-tut.7,2022.2.4,None,
0.4,400,unexp,0,1,1,1,49.93174770799851,50.92286179199982,50.92286179199982,50.92286179199982,space,1.1268450410007063,52.45514220866632,,52.748541416998705,52.748541416998705,52.748541416998705,400,2,"[27.07442820899996, 8.05068695800037]","[27.07443074999901, 8.050689790999968]",tanmayi,001,2022-11-10_10h57.33.940,lab-tut.7,2022.2.4,None,
0.1,1000,exp,0,2,2,6,60.7986706669999,61.788309916999424,61.788309916999424,61.788309916999424,space,0.6876634160016692,62.588834958666,62.88134891699883,62.88134891699883,62.88134891699883,62.88134891699883,200,3,"[27.07442820899996, 8.05068695800037, 6.117641292001281]","[27.07443074999901, 8.050689790999968, 6.117644125000879]",tanmayi,001,2022-11-10_10h57.33.940,lab-tut.7,2022.2.4,None,
0.7,400,unexp,0,3,3,2,68.99872912499995,69.98913695800002,69.98913695800002,69.98913695800002,space,0.8776713750012277,71.57208408366593,71.86548408299859,71.86548408299859,71.86548408299859,71.86548408299859,700,4,"[27.07442820899996, 8.05068695800037, 6.117641292001281, 2.9006843340011983]","[27.07443074999901, 8.050689790999968, 6.117644125000879, 2.9006871250003314]",tanmayi,001,2022-11-10_10h57.33.940,lab-tut.7,2022.2.4,None,
0.7,1000,exp,0,4,4,11,74.76541320799879,75.74947091699869,75.74947091699869,75.7562144579988,space,0.2898912080017908,76.74966929166682,77.04404774999966,77.04404774999966,77.04404774999966,77.04404774999966,700,5,"[27.07442820899996, 8.05068695800037, 6.117641292001281, 2.9006843340011983, 1.2890127500013477]","[27.07443074999901, 8.050689790999968, 6.117644125000879, 2.9006871250003314, 1.2890154579999944]",tanmayi,001,2022-11-10_10h57.33.940,lab-tut.7,2022.2.4,None,
0.1,1000,exp,0,5,5,3,78.33226354199905,79.32286533299884,79.32286533299884,79.32286533299884,space,0.8144822080012091,80.24950224966621,,80.54471283299972,80.54471283299972,80.54471283299972,200,6,"[27.07442820899996, 8.05068695800037, 6.117641292001281, 2.9006843340011983, 1.2890127500013477, 3.4391683339999872]","[27.07443074999901, 8.050689790999968, 6.117644125000879, 2.9006871250003314, 1.2890154579999944, 3.43917062500077]",tanmayi,001,2022-11-10_10h57.33.940,lab-tut.7,2022.2.4,None,
0.7,1000,exp,0,6,6,8,83.98264374999962,84.97271504199853,84.97271504199853,84.97271504199853,space,0.5205141240021476,86.21622674966626,86.50896974999887,86.50896974999887,86.50896974999887,86.50896974999887,400,7,"[27.07442820899996, 8.05068695800037, 6.117641292001281, 2.9006843340011983, 1.2890127500013477, 3.4391683339999872, 1.539620166999157]","[27.07443074999901, 8.050689790999968, 6.117644125000879, 2.9006871250003314, 1.2890154579999944, 3.43917062500077, 1.5396227090004686]",tanmayi,001,2022-11-10_10h57.33.940,lab-tut.7,2022.2.4,None,
0.7,1000,exp,0,7,7,5,88.04905233299905,89.03895604199897,89.03895604199897,89.03895604199897,space,0.6770717910003441,90.4216331666669,90.71542954199867,90.71542954199867,90.71542954199867,90.71542954199867,250,8,"[27.07442820899996, 8.05068695800037, 6.117641292001281, 2.9006843340011983, 1.2890127500013477, 3.4391683339999872, 1.539620166999157, 4.551875916999052]","[27.07443074999901, 8.050689790999968, 6.117644125000879, 2.9006871250003314, 1.2890154579999944, 3.43917062500077, 1.5396227090004686, 4.551878166999813]",tanmayi,001,2022-11-10_10h57.33.940,lab-tut.7,2022.2.4,None,
0.1,1000,exp,0,8,8,9,95.26554766699883,96.25594170799923,96.25594170799923,96.25594170799923,space,0.7799136660014483,97.1495421246657,97.44450720799978,97.44450720799978,97.44450720799978,97.44450720799978,400,9,"[27.07442820899996, 8.05068695800037, 6.117641292001281, 2.9006843340011983, 1.2890127500013477, 3.4391683339999872, 1.539620166999157, 4.551875916999052, 2.739347832999556]","[27.07443074999901, 8.050689790999968, 6.117644125000879, 2.9006871250003314, 1.2890154579999944, 3.43917062500077, 1.5396227090004686, 4.551878166999813, 2.739350124998964]",tanmayi,001,2022-11-10_10h57.33.940,lab-tut.7,2022.2.4,None,
0.4,1000,exp,0,9,9,7,100.18223412499901,101.17308562499966,101.17308562499966,101.17308562499966,space,0.35130141700210515,101.939017916666,102.24884604199906,102.24884604199906,102.24884604199906,102.24884604199906,400,10,"[27.07442820899996, 8.05068695800037, 6.117641292001281, 2.9006843340011983, 1.2890127500013477, 3.4391683339999872, 1.539620166999157, 4.551875916999052, 2.739347832999556, 1.9841002080011094]","[27.07443074999901, 8.050689790999968, 6.117644125000879, 2.9006871250003314, 1.2890154579999944, 3.43917062500077, 1.5396227090004686, 4.551878166999813, 2.739350124998964, 1.9841025410005386]",tanmayi,001,2022-11-10_10h57.33.940,lab-tut.7,2022.2.4,None,
0.4,1000,exp,0,10,10,4,104.21563908299868,105.20601233299931,105.20601233299931,105.20601233299931,space,0.3577631670013943,105.96619808366655,,106.26011554199977,106.26011554199977,106.26011554199977,400,11,"[27.07442820899996, 8.05068695800037, 6.117641292001281, 2.9006843340011983, 1.2890127500013477, 3.4391683339999872, 1.539620166999157, 4.551875916999052, 2.739347832999556, 1.9841002080011094, 1.7226176250005665]","[27.07443074999901, 8.050689790999968, 6.117644125000879, 2.9006871250003314, 1.2890154579999944, 3.43917062500077, 1.5396227090004686, 4.551878166999813, 2.739350124998964, 1.9841025410005386, 1.7226201670000592]",tanmayi,001,2022-11-10_10h57.33.940,lab-tut.7,2022.2.4,None,
0.1,400,unexp,0,11,11,0,107.98245683299865,108.9723695419998,108.9723695419998,108.9723695419998,space,0.8946634580006503,109.97184308366583,110.26569316699897,110.26569316699897,110.26569316699897,110.26569316699897,500,12,"[27.07442820899996, 8.05068695800037, 6.117641292001281, 2.9006843340011983, 1.2890127500013477, 3.4391683339999872, 1.539620166999157, 4.551875916999052, 2.739347832999556, 1.9841002080011094, 1.7226176250005665, 6.98409995899965]","[27.07443074999901, 8.050689790999968, 6.117644125000879, 2.9006871250003314, 1.2890154579999944, 3.43917062500077, 1.5396227090004686, 4.551878166999813, 2.739350124998964, 1.9841025410005386, 1.7226201670000592, 6.9841025000005175]",tanmayi,001,2022-11-10_10h57.33.940,lab-tut.7,2022.2.4,None,
0.1,1000,exp,1,0,12,6,117.2499037919988,118.23945787499906,118.23945787499906,118.23945787499906,space,0.35791662400151836,118.69987670866637,118.99357641699862,118.99357641699862,118.99357641699862,118.99357641699862,250,13,"[27.07442820899996, 8.05068695800037, 6.117641292001281, 2.9006843340011983, 1.2890127500013477, 3.4391683339999872, 1.539620166999157, 4.551875916999052, 2.739347832999556, 1.9841002080011094, 1.7226176250005665, 6.98409995899965, 6.172724250000101]","[27.07443074999901, 8.050689790999968, 6.117644125000879, 2.9006871250003314, 1.2890154579999944, 3.43917062500077, 1.5396227090004686, 4.551878166999813, 2.739350124998964, 1.9841025410005386, 1.7226201670000592, 6.9841025000005175, 6.1727265839999745]",tanmayi,001,2022-11-10_10h57.33.940,lab-tut.7,2022.2.4,None,
0.7,1000,exp,1,1,13,11,125.16583045799962,126.15596166700016,126.15596166700016,126.15596166700016,space,0.6232813750011701,127.483176791666,127.77692399999978,127.77692399999978,127.77692399999978,127.77692399999978,500,14,"[27.07442820899996, 8.05068695800037, 6.117641292001281, 2.9006843340011983, 1.2890127500013477, 3.4391683339999872, 1.539620166999157, 4.551875916999052, 2.739347832999556, 1.9841002080011094, 1.7226176250005665, 6.98409995899965, 6.172724250000101, 2.6895056670000486]","[27.07443074999901, 8.050689790999968, 6.117644125000879, 2.9006871250003314, 1.2890154579999944, 3.43917062500077, 1.5396227090004686, 4.551878166999813, 2.739350124998964, 1.9841025410005386, 1.7226201670000592, 6.9841025000005175, 6.1727265839999745, 2.6895082920000277]",tanmayi,001,2022-11-10_10h57.33.940,lab-tut.7,2022.2.4,None,
0.4,1000,exp,1,2,14,10,130.46585054199932,131.45613312499881,131.45613312499881,131.45613312499881,space,0.5050587500008987,132.3721949166668,,132.66572512499988,132.66572512499988,132.66572512499988,300,15,"[27.07442820899996, 8.05068695800037, 6.117641292001281, 2.9006843340011983, 1.2890127500013477, 3.4391683339999872, 1.539620166999157, 4.551875916999052, 2.739347832999556, 1.9841002080011094, 1.7226176250005665, 6.98409995899965, 6.172724250000101, 2.6895056670000486, 5.93399162499918]","[27.07443074999901, 8.050689790999968, 6.117644125000879, 2.9006871250003314, 1.2890154579999944, 3.43917062500077, 1.5396227090004686, 4.551878166999813, 2.739350124998964, 1.9841025410005386, 1.7226201670000592, 6.9841025000005175, 6.1727265839999745, 2.6895082920000277, 5.9339942909991805]",tanmayi,001,2022-11-10_10h57.33.940,lab-tut.7,2022.2.4,None,
0.7,1000,exp,1,3,15,8,138.59919566699864,139.58982787499917,139.58982787499917,139.58982787499917,space,0.35309008300100686,140.6555997086655,140.94852912500028,140.94852912500028,140.94852912500028,140.94852912500028,600,16,"[27.07442820899996, 8.05068695800037, 6.117641292001281, 2.9006843340011983, 1.2890127500013477, 3.4391683339999872, 1.539620166999157, 4.551875916999052, 2.739347832999556, 1.9841002080011094, 1.7226176250005665, 6.98409995899965, 6.172724250000101, 2.6895056670000486, 5.93399162499918, 2.550011875000564]","[27.07443074999901, 8.050689790999968, 6.117644125000879, 2.9006871250003314, 1.2890154579999944, 3.43917062500077, 1.5396227090004686, 4.551878166999813, 2.739350124998964, 1.9841025410005386, 1.7226201670000592, 6.9841025000005175, 6.1727265839999745, 2.6895082920000277, 5.9339942909991805, 2.550014917000226]",tanmayi,001,2022-11-10_10h57.33.940,lab-tut.7,2022.2.4,None,
0.4,1000,exp,1,4,16,4,143.49925487499968,144.48883520799973,144.48883520799973,144.48883520799973,space,0.5962641660007648,145.50005458366675,145.7944327919995,145.7944327919995,145.7944327919995,145.7944327919995,400,17,"[27.07442820899996, 8.05068695800037, 6.117641292001281, 2.9006843340011983, 1.2890127500013477, 3.4391683339999872, 1.539620166999157, 4.551875916999052, 2.739347832999556, 1.9841002080011094, 1.7226176250005665, 6.98409995899965, 6.172724250000101, 2.6895056670000486, 5.93399162499918, 2.550011875000564, 2.37265162499898]","[27.07443074999901, 8.050689790999968, 6.117644125000879, 2.9006871250003314, 1.2890154579999944, 3.43917062500077, 1.5396227090004686, 4.551878166999813, 2.739350124998964, 1.9841025410005386, 1.7226201670000592, 6.9841025000005175, 6.1727265839999745, 2.6895082920000277, 5.9339942909991805, 2.550014917000226, 2.372654208998938]",tanmayi,001,2022-11-10_10h57.33.940,lab-tut.7,2022.2.4,None,
0.4,1000,exp,1,5,17,7,148.16591604199857,149.15612962500018,149.15612962500018,149.15612962500018,space,0.610117791000448,150.17238420866695,150.46616299999914,150.46616299999914,150.46616299999914,150.46616299999914,400,18,"[27.07442820899996, 8.05068695800037, 6.117641292001281, 2.9006843340011983, 1.2890127500013477, 3.4391683339999872, 1.539620166999157, 4.551875916999052, 2.739347832999556, 1.9841002080011094, 1.7226176250005665, 6.98409995899965, 6.172724250000101, 2.6895056670000486, 5.93399162499918, 2.550011875000564, 2.37265162499898, 3.000448792001407]","[27.07443074999901, 8.050689790999968, 6.117644125000879, 2.9006871250003314, 1.2890154579999944, 3.43917062500077, 1.5396227090004686, 4.551878166999813, 2.739350124998964, 1.9841025410005386, 1.7226201670000592, 6.9841025000005175, 6.1727265839999745, 2.6895082920000277, 5.9339942909991805, 2.550014917000226, 2.372654208998938, 3.0004512920004345]",tanmayi,001,2022-11-10_10h57.33.940,lab-tut.7,2022.2.4,None,
0.4,400,unexp,1,6,18,1,153.466273,154.45413412499875,154.45413412499875,154.45413412499875,space,0.3491639160019986,155.2062355836663,155.49883408299866,155.49883408299866,155.49883408299866,155.49883408299866,200,19,"[27.07442820899996, 8.05068695800037, 6.117641292001281, 2.9006843340011983, 1.2890127500013477, 3.4391683339999872, 1.539620166999157, 4.551875916999052, 2.739347832999556, 1.9841002080011094, 1.7226176250005665, 6.98409995899965, 6.172724250000101, 2.6895056670000486, 5.93399162499918, 2.550011875000564, 2.37265162499898, 3.000448792001407, 2.4340360420010256]","[27.07443074999901, 8.050689790999968, 6.117644125000879, 2.9006871250003314, 1.2890154579999944, 3.43917062500077, 1.5396227090004686, 4.551878166999813, 2.739350124998964, 1.9841025410005386, 1.7226201670000592, 6.9841025000005175, 6.1727265839999745, 2.6895082920000277, 5.9339942909991805, 2.550014917000226, 2.372654208998938, 3.0004512920004345, 2.4340388330001588]",tanmayi,001,2022-11-10_10h57.33.940,lab-tut.7,2022.2.4,None,
0.1,400,unexp,1,7,19,0,157.93257433299914,158.9232724579997,158.9232724579997,158.9232724579997,space,0.6184246669999993,159.66691424966692,159.9609167079998,159.9609167079998,159.9609167079998,159.9609167079998,100,20,"[27.07442820899996, 8.05068695800037, 6.117641292001281, 2.9006843340011983, 1.2890127500013477, 3.4391683339999872, 1.539620166999157, 4.551875916999052, 2.739347832999556, 1.9841002080011094, 1.7226176250005665, 6.98409995899965, 6.172724250000101, 2.6895056670000486, 5.93399162499918, 2.550011875000564, 2.37265162499898, 3.000448792001407, 2.4340360420010256, 2.5892664580005658]","[27.07443074999901, 8.050689790999968, 6.117644125000879, 2.9006871250003314, 1.2890154579999944, 3.43917062500077, 1.5396227090004686, 4.551878166999813, 2.739350124998964, 1.9841025410005386, 1.7226201670000592, 6.9841025000005175, 6.1727265839999745, 2.6895082920000277, 5.9339942909991805, 2.550014917000226, 2.372654208998938, 3.0004512920004345, 2.4340388330001588, 2.5892694579997624]",tanmayi,001,2022-11-10_10h57.33.940,lab-tut.7,2022.2.4,None,
0.7,400,unexp,1,8,20,2,162.54922049999914,163.5397092080002,163.5397092080002,163.5397092080002,space,0.26596362400232465,164.51675845866546,164.81059908299903,164.81059908299903,164.81059908299903,164.81059908299903,300,21,"[27.07442820899996, 8.05068695800037, 6.117641292001281, 2.9006843340011983, 1.2890127500013477, 3.4391683339999872, 1.539620166999157, 4.551875916999052, 2.739347832999556, 1.9841002080011094, 1.7226176250005665, 6.98409995899965, 6.172724250000101, 2.6895056670000486, 5.93399162499918, 2.550011875000564, 2.37265162499898, 3.000448792001407, 2.4340360420010256, 2.5892664580005658, 2.4394271670007583]","[27.07443074999901, 8.050689790999968, 6.117644125000879, 2.9006871250003314, 1.2890154579999944, 3.43917062500077, 1.5396227090004686, 4.551878166999813, 2.739350124998964, 1.9841025410005386, 1.7226201670000592, 6.9841025000005175, 6.1727265839999745, 2.6895082920000277, 5.9339942909991805, 2.550014917000226, 2.372654208998938, 3.0004512920004345, 2.4340388330001588, 2.5892694579997624, 2.4394297920007375]",tanmayi,001,2022-11-10_10h57.33.940,lab-tut.7,2022.2.4,None,
0.1,1000,exp,1,9,21,9,167.24934391699935,168.23987687499903,168.23987687499903,168.23987687499903,space,0.23177329200188979,168.58888979166684,168.88158483299958,168.88158483299958,168.88158483299958,168.88158483299958,100,22,"[27.07442820899996, 8.05068695800037, 6.117641292001281, 2.9006843340011983, 1.2890127500013477, 3.4391683339999872, 1.539620166999157, 4.551875916999052, 2.739347832999556, 1.9841002080011094, 1.7226176250005665, 6.98409995899965, 6.172724250000101, 2.6895056670000486, 5.93399162499918, 2.550011875000564, 2.37265162499898, 3.000448792001407, 2.4340360420010256, 2.5892664580005658, 2.4394271670007583, 2.5172002499984956]","[27.07443074999901, 8.050689790999968, 6.117644125000879, 2.9006871250003314, 1.2890154579999944, 3.43917062500077, 1.5396227090004686, 4.551878166999813, 2.739350124998964, 1.9841025410005386, 1.7226201670000592, 6.9841025000005175, 6.1727265839999745, 2.6895082920000277, 5.9339942909991805, 2.550014917000226, 2.372654208998938, 3.0004512920004345, 2.4340388330001588, 2.5892694579997624, 2.4394297920007375, 2.5172028339984536]",tanmayi,001,2022-11-10_10h57.33.940,lab-tut.7,2022.2.4,None,
0.1,1000,exp,1,10,22,3,171.39931837499898,172.38963087499906,172.38963087499906,172.38963087499906,space,0.2895800420010346,172.78871970866592,173.08410445799927,173.08410445799927,173.08410445799927,173.08410445799927,100,23,"[27.07442820899996, 8.05068695800037, 6.117641292001281, 2.9006843340011983, 1.2890127500013477, 3.4391683339999872, 1.539620166999157, 4.551875916999052, 2.739347832999556, 1.9841002080011094, 1.7226176250005665, 6.98409995899965, 6.172724250000101, 2.6895056670000486, 5.93399162499918, 2.550011875000564, 2.37265162499898, 3.000448792001407, 2.4340360420010256, 2.5892664580005658, 2.4394271670007583, 2.5172002499984956, 2.1835620410001866]","[27.07443074999901, 8.050689790999968, 6.117644125000879, 2.9006871250003314, 1.2890154579999944, 3.43917062500077, 1.5396227090004686, 4.551878166999813, 2.739350124998964, 1.9841025410005386, 1.7226201670000592, 6.9841025000005175, 6.1727265839999745, 2.6895082920000277, 5.9339942909991805, 2.550014917000226, 2.372654208998938, 3.0004512920004345, 2.4340388330001588, 2.5892694579997624, 2.4394297920007375, 2.5172028339984536, 2.1835645829996793]",tanmayi,001,2022-11-10_10h57.33.940,lab-tut.7,2022.2.4,None,
0.7,1000,exp,1,11,23,5,175.2659357499997,176.25678470799903,176.25678470799903,176.25678470799903,space,0.4336148750026041,177.40563274966578,,177.71232487499947,177.71232487499947,177.71232487499947,200,24,"[27.07442820899996, 8.05068695800037, 6.117641292001281, 2.9006843340011983, 1.2890127500013477, 3.4391683339999872, 1.539620166999157, 4.551875916999052, 2.739347832999556, 1.9841002080011094, 1.7226176250005665, 6.98409995899965, 6.172724250000101, 2.6895056670000486, 5.93399162499918, 2.550011875000564, 2.37265162499898, 3.000448792001407, 2.4340360420010256, 2.5892664580005658, 2.4394271670007583, 2.5172002499984956, 2.1835620410001866, 3.271988832999341]","[27.07443074999901, 8.050689790999968, 6.117644125000879, 2.9006871250003314, 1.2890154579999944, 3.43917062500077, 1.5396227090004686, 4.551878166999813, 2.739350124998964, 1.9841025410005386, 1.7226201670000592, 6.9841025000005175, 6.1727265839999745, 2.6895082920000277, 5.9339942909991805, 2.550014917000226, 2.372654208998938, 3.0004512920004345, 2.4340388330001588, 2.5892694579997624, 2.4394297920007375, 2.5172028339984536, 2.1835645829996793, 3.2719914999997854]",tanmayi,001,2022-11-10_10h57.33.940,lab-tut.7,2022.2.4,None,
0.7,1000,exp,2,0,24,11,180.98255574999894,181.97330599999987,181.97330599999987,181.97330599999987,space,0.30092462500033434,182.98900208366675,,183.299597833,183.299597833,183.299597833,300,25,"[27.07442820899996, 8.05068695800037, 6.117641292001281, 2.9006843340011983, 1.2890127500013477, 3.4391683339999872, 1.539620166999157, 4.551875916999052, 2.739347832999556, 1.9841002080011094, 1.7226176250005665, 6.98409995899965, 6.172724250000101, 2.6895056670000486, 5.93399162499918, 2.550011875000564, 2.37265162499898, 3.000448792001407, 2.4340360420010256, 2.5892664580005658, 2.4394271670007583, 2.5172002499984956, 2.1835620410001866, 3.271988832999341, 3.8392086249987187]","[27.07443074999901, 8.050689790999968, 6.117644125000879, 2.9006871250003314, 1.2890154579999944, 3.43917062500077, 1.5396227090004686, 4.551878166999813, 2.739350124998964, 1.9841025410005386, 1.7226201670000592, 6.9841025000005175, 6.1727265839999745, 2.6895082920000277, 5.9339942909991805, 2.550014917000226, 2.372654208998938, 3.0004512920004345, 2.4340388330001588, 2.5892694579997624, 2.4394297920007375, 2.5172028339984536, 2.1835645829996793, 3.2719914999997854, 3.839211749998867]",tanmayi,001,2022-11-10_10h57.33.940,lab-tut.7,2022.2.4,None,
0.4,1000,exp,2,1,25,10,187.1328320419998,188.12304799999947,188.12304799999947,188.12304799999947,space,0.30980383300084213,188.83327204166588,189.12788224999895,189.12788224999895,189.12788224999895,189.12788224999895,200,26,"[27.07442820899996, 8.05068695800037, 6.117641292001281, 2.9006843340011983, 1.2890127500013477, 3.4391683339999872, 1.539620166999157, 4.551875916999052, 2.739347832999556, 1.9841002080011094, 1.7226176250005665, 6.98409995899965, 6.172724250000101, 2.6895056670000486, 5.93399162499918, 2.550011875000564, 2.37265162499898, 3.000448792001407, 2.4340360420010256, 2.5892664580005658, 2.4394271670007583, 2.5172002499984956, 2.1835620410001866, 3.271988832999341, 3.8392086249987187, 2.5387318339999183]","[27.07443074999901, 8.050689790999968, 6.117644125000879, 2.9006871250003314, 1.2890154579999944, 3.43917062500077, 1.5396227090004686, 4.551878166999813, 2.739350124998964, 1.9841025410005386, 1.7226201670000592, 6.9841025000005175, 6.1727265839999745, 2.6895082920000277, 5.9339942909991805, 2.550014917000226, 2.372654208998938, 3.0004512920004345, 2.4340388330001588, 2.5892694579997624, 2.4394297920007375, 2.5172028339984536, 2.1835645829996793, 3.2719914999997854, 3.839211749998867, 2.538734833999115]",tanmayi,001,2022-11-10_10h57.33.940,lab-tut.7,2022.2.4,None,
0.7,400,unexp,2,2,26,2,191.6660622499985,192.65639258299962,192.65639258299962,192.65639258299962,space,0.5770669170033216,193.93892016666567,194.23279470799935,194.23279470799935,194.23279470799935,194.23279470799935,400,27,"[27.07442820899996, 8.05068695800037, 6.117641292001281, 2.9006843340011983, 1.2890127500013477, 3.4391683339999872, 1.539620166999157, 4.551875916999052, 2.739347832999556, 1.9841002080011094, 1.7226176250005665, 6.98409995899965, 6.172724250000101, 2.6895056670000486, 5.93399162499918, 2.550011875000564, 2.37265162499898, 3.000448792001407, 2.4340360420010256, 2.5892664580005658, 2.4394271670007583, 2.5172002499984956, 2.1835620410001866, 3.271988832999341, 3.8392086249987187, 2.5387318339999183, 2.7328386250010226]","[27.07443074999901, 8.050689790999968, 6.117644125000879, 2.9006871250003314, 1.2890154579999944, 3.43917062500077, 1.5396227090004686, 4.551878166999813, 2.739350124998964, 1.9841025410005386, 1.7226201670000592, 6.9841025000005175, 6.1727265839999745, 2.6895082920000277, 5.9339942909991805, 2.550014917000226, 2.372654208998938, 3.0004512920004345, 2.4340388330001588, 2.5892694579997624, 2.4394297920007375, 2.5172028339984536, 2.1835645829996793, 3.2719914999997854, 3.839211749998867, 2.538734833999115, 2.7328413750001346]",tanmayi,001,2022-11-10_10h57.33.940,lab-tut.7,2022.2.4,None,
0.4,400,unexp,2,3,27,1,196.96593508299884,197.95640016699872,197.95640016699872,197.95640016699872,space,0.9515147500005696,199.32250887466606,199.61509449999903,199.61509449999903,199.61509449999903,199.61509449999903,300,28,"[27.07442820899996, 8.05068695800037, 6.117641292001281, 2.9006843340011983, 1.2890127500013477, 3.4391683339999872, 1.539620166999157, 4.551875916999052, 2.739347832999556, 1.9841002080011094, 1.7226176250005665, 6.98409995899965, 6.172724250000101, 2.6895056670000486, 5.93399162499918, 2.550011875000564, 2.37265162499898, 3.000448792001407, 2.4340360420010256, 2.5892664580005658, 2.4394271670007583, 2.5172002499984956, 2.1835620410001866, 3.271988832999341, 3.8392086249987187, 2.5387318339999183, 2.7328386250010226, 2.250497249999171]","[27.07443074999901, 8.050689790999968, 6.117644125000879, 2.9006871250003314, 1.2890154579999944, 3.43917062500077, 1.5396227090004686, 4.551878166999813, 2.739350124998964, 1.9841025410005386, 1.7226201670000592, 6.9841025000005175, 6.1727265839999745, 2.6895082920000277, 5.9339942909991805, 2.550014917000226, 2.372654208998938, 3.0004512920004345, 2.4340388330001588, 2.5892694579997624, 2.4394297920007375, 2.5172028339984536, 2.1835645829996793, 3.2719914999997854, 3.839211749998867, 2.538734833999115, 2.7328413750001346, 2.250499707999552]",tanmayi,001,2022-11-10_10h57.33.940,lab-tut.7,2022.2.4,None,
0.7,1000,exp,2,4,28,8,201.86606433299858,202.85643187499954,202.85643187499954,202.85643187499954,space,0.24022299900207145,203.80550212466576,,204.09879945799912,204.09879945799912,204.09879945799912,400,29,"[27.07442820899996, 8.05068695800037, 6.117641292001281, 2.9006843340011983, 1.2890127500013477, 3.4391683339999872, 1.539620166999157, 4.551875916999052, 2.739347832999556, 1.9841002080011094, 1.7226176250005665, 6.98409995899965, 6.172724250000101, 2.6895056670000486, 5.93399162499918, 2.550011875000564, 2.37265162499898, 3.000448792001407, 2.4340360420010256, 2.5892664580005658, 2.4394271670007583, 2.5172002499984956, 2.1835620410001866, 3.271988832999341, 3.8392086249987187, 2.5387318339999183, 2.7328386250010226, 2.250497249999171, 1.9173062499994558]","[27.07443074999901, 8.050689790999968, 6.117644125000879, 2.9006871250003314, 1.2890154579999944, 3.43917062500077, 1.5396227090004686, 4.551878166999813, 2.739350124998964, 1.9841025410005386, 1.7226201670000592, 6.9841025000005175, 6.1727265839999745, 2.6895082920000277, 5.9339942909991805, 2.550014917000226, 2.372654208998938, 3.0004512920004345, 2.4340388330001588, 2.5892694579997624, 2.4394297920007375, 2.5172028339984536, 2.1835645829996793, 3.2719914999997854, 3.839211749998867, 2.538734833999115, 2.7328413750001346, 2.250499707999552, 1.917308416999731]",tanmayi,001,2022-11-10_10h57.33.940,lab-tut.7,2022.2.4,None,
0.1,1000,exp,2,5,29,3,206.0167672919997,207.0069087920001,207.0069087920001,207.0069087920001,space,0.3311916660022689,207.4555836246657,,207.76221766699928,207.76221766699928,207.76221766699928,100,30,"[27.07442820899996, 8.05068695800037, 6.117641292001281, 2.9006843340011983, 1.2890127500013477, 3.4391683339999872, 1.539620166999157, 4.551875916999052, 2.739347832999556, 1.9841002080011094, 1.7226176250005665, 6.98409995899965, 6.172724250000101, 2.6895056670000486, 5.93399162499918, 2.550011875000564, 2.37265162499898, 3.000448792001407, 2.4340360420010256, 2.5892664580005658, 2.4394271670007583, 2.5172002499984956, 2.1835620410001866, 3.271988832999341, 3.8392086249987187, 2.5387318339999183, 2.7328386250010226, 2.250497249999171, 1.9173062499994558, 4.022363457999745]","[27.07443074999901, 8.050689790999968, 6.117644125000879, 2.9006871250003314, 1.2890154579999944, 3.43917062500077, 1.5396227090004686, 4.551878166999813, 2.739350124998964, 1.9841025410005386, 1.7226201670000592, 6.9841025000005175, 6.1727265839999745, 2.6895082920000277, 5.9339942909991805, 2.550014917000226, 2.372654208998938, 3.0004512920004345, 2.4340388330001588, 2.5892694579997624, 2.4394297920007375, 2.5172028339984536, 2.1835645829996793, 3.2719914999997854, 3.839211749998867, 2.538734833999115, 2.7328413750001346, 2.250499707999552, 1.917308416999731, 4.022366041999703]",tanmayi,001,2022-11-10_10h57.33.940,lab-tut.7,2022.2.4,None,
0.1,400,unexp,2,6,30,0,211.78266783300023,212.77247504200022,212.77247504200022,212.77247504200022,space,0.2666320000007545,213.14995816666695,213.44443166699966,213.44443166699966,213.44443166699966,213.44443166699966,100,31,"[27.07442820899996, 8.05068695800037, 6.117641292001281, 2.9006843340011983, 1.2890127500013477, 3.4391683339999872, 1.539620166999157, 4.551875916999052, 2.739347832999556, 1.9841002080011094, 1.7226176250005665, 6.98409995899965, 6.172724250000101, 2.6895056670000486, 5.93399162499918, 2.550011875000564, 2.37265162499898, 3.000448792001407, 2.4340360420010256, 2.5892664580005658, 2.4394271670007583, 2.5172002499984956, 2.1835620410001866, 3.271988832999341, 3.8392086249987187, 2.5387318339999183, 2.7328386250010226, 2.250497249999171, 1.9173062499994558, 4.022363457999745, 2.8730163749987696]","[27.07443074999901, 8.050689790999968, 6.117644125000879, 2.9006871250003314, 1.2890154579999944, 3.43917062500077, 1.5396227090004686, 4.551878166999813, 2.739350124998964, 1.9841025410005386, 1.7226201670000592, 6.9841025000005175, 6.1727265839999745, 2.6895082920000277, 5.9339942909991805, 2.550014917000226, 2.372654208998938, 3.0004512920004345, 2.4340388330001588, 2.5892694579997624, 2.4394297920007375, 2.5172028339984536, 2.1835645829996793, 3.2719914999997854, 3.839211749998867, 2.538734833999115, 2.7328413750001346, 2.250499707999552, 1.917308416999731, 4.022366041999703, 2.8730190829992353]",tanmayi,001,2022-11-10_10h57.33.940,lab-tut.7,2022.2.4,None,
0.4,1000,exp,2,7,31,7,216.31669795800008,217.30682675000025,217.30682675000025,217.30682675000025,space,0.3023960830014403,218.03335445866676,,218.32887983299952,218.32887983299952,218.32887983299952,300,32,"[27.07442820899996, 8.05068695800037, 6.117641292001281, 2.9006843340011983, 1.2890127500013477, 3.4391683339999872, 1.539620166999157, 4.551875916999052, 2.739347832999556, 1.9841002080011094, 1.7226176250005665, 6.98409995899965, 6.172724250000101, 2.6895056670000486, 5.93399162499918, 2.550011875000564, 2.37265162499898, 3.000448792001407, 2.4340360420010256, 2.5892664580005658, 2.4394271670007583, 2.5172002499984956, 2.1835620410001866, 3.271988832999341, 3.8392086249987187, 2.5387318339999183, 2.7328386250010226, 2.250497249999171, 1.9173062499994558, 4.022363457999745, 2.8730163749987696, 2.15594237500045]","[27.07443074999901, 8.050689790999968, 6.117644125000879, 2.9006871250003314, 1.2890154579999944, 3.43917062500077, 1.5396227090004686, 4.551878166999813, 2.739350124998964, 1.9841025410005386, 1.7226201670000592, 6.9841025000005175, 6.1727265839999745, 2.6895082920000277, 5.9339942909991805, 2.550014917000226, 2.372654208998938, 3.0004512920004345, 2.4340388330001588, 2.5892694579997624, 2.4394297920007375, 2.5172028339984536, 2.1835645829996793, 3.2719914999997854, 3.839211749998867, 2.538734833999115, 2.7328413750001346, 2.250499707999552, 1.917308416999731, 4.022366041999703, 2.8730190829992353, 2.155944833000831]",tanmayi,001,2022-11-10_10h57.33.940,lab-tut.7,2022.2.4,None,
0.4,1000,exp,2,8,32,4,220.48258883299968,221.47256104199914,221.47256104199914,221.47256104199914,space,0.3696790830017562,222.25582858366604,222.5492533329998,222.5492533329998,222.5492533329998,222.5492533329998,500,33,"[27.07442820899996, 8.05068695800037, 6.117641292001281, 2.9006843340011983, 1.2890127500013477, 3.4391683339999872, 1.539620166999157, 4.551875916999052, 2.739347832999556, 1.9841002080011094, 1.7226176250005665, 6.98409995899965, 6.172724250000101, 2.6895056670000486, 5.93399162499918, 2.550011875000564, 2.37265162499898, 3.000448792001407, 2.4340360420010256, 2.5892664580005658, 2.4394271670007583, 2.5172002499984956, 2.1835620410001866, 3.271988832999341, 3.8392086249987187, 2.5387318339999183, 2.7328386250010226, 2.250497249999171, 1.9173062499994558, 4.022363457999745, 2.8730163749987696, 2.15594237500045, 3.233426666998639]","[27.07443074999901, 8.050689790999968, 6.117644125000879, 2.9006871250003314, 1.2890154579999944, 3.43917062500077, 1.5396227090004686, 4.551878166999813, 2.739350124998964, 1.9841025410005386, 1.7226201670000592, 6.9841025000005175, 6.1727265839999745, 2.6895082920000277, 5.9339942909991805, 2.550014917000226, 2.372654208998938, 3.0004512920004345, 2.4340388330001588, 2.5892694579997624, 2.4394297920007375, 2.5172028339984536, 2.1835645829996793, 3.2719914999997854, 3.839211749998867, 2.538734833999115, 2.7328413750001346, 2.250499707999552, 1.917308416999731, 4.022366041999703, 2.8730190829992353, 2.155944833000831, 3.23342941699957]",tanmayi,001,2022-11-10_10h57.33.940,lab-tut.7,2022.2.4,None,
0.7,1000,exp,2,9,33,5,225.78288362499916,226.77297033299874,226.77297033299874,226.77297033299874,space,0.4386150420032209,227.9224377496669,,228.2328240829993,228.2328240829993,228.2328240829993,600,34,"[27.07442820899996, 8.05068695800037, 6.117641292001281, 2.9006843340011983, 1.2890127500013477, 3.4391683339999872, 1.539620166999157, 4.551875916999052, 2.739347832999556, 1.9841002080011094, 1.7226176250005665, 6.98409995899965, 6.172724250000101, 2.6895056670000486, 5.93399162499918, 2.550011875000564, 2.37265162499898, 3.000448792001407, 2.4340360420010256, 2.5892664580005658, 2.4394271670007583, 2.5172002499984956, 2.1835620410001866, 3.271988832999341, 3.8392086249987187, 2.5387318339999183, 2.7328386250010226, 2.250497249999171, 1.9173062499994558, 4.022363457999745, 2.8730163749987696, 2.15594237500045, 3.233426666998639, 1.771866584000236]","[27.07443074999901, 8.050689790999968, 6.117644125000879, 2.9006871250003314, 1.2890154579999944, 3.43917062500077, 1.5396227090004686, 4.551878166999813, 2.739350124998964, 1.9841025410005386, 1.7226201670000592, 6.9841025000005175, 6.1727265839999745, 2.6895082920000277, 5.9339942909991805, 2.550014917000226, 2.372654208998938, 3.0004512920004345, 2.4340388330001588, 2.5892694579997624, 2.4394297920007375, 2.5172028339984536, 2.1835645829996793, 3.2719914999997854, 3.839211749998867, 2.538734833999115, 2.7328413750001346, 2.250499707999552, 1.917308416999731, 4.022366041999703, 2.8730190829992353, 2.155944833000831, 3.23342941699957, 1.771869374999369]",tanmayi,001,2022-11-10_10h57.33.940,lab-tut.7,2022.2.4,None,
0.1,1000,exp,2,10,34,6,229.99978541699966,230.9897802919986,230.9897802919986,230.9897802919986,space,0.47635920800166787,231.5724390416656,231.8650089999992,231.8650089999992,231.8650089999992,231.8650089999992,300,35,"[27.07442820899996, 8.05068695800037, 6.117641292001281, 2.9006843340011983, 1.2890127500013477, 3.4391683339999872, 1.539620166999157, 4.551875916999052, 2.739347832999556, 1.9841002080011094, 1.7226176250005665, 6.98409995899965, 6.172724250000101, 2.6895056670000486, 5.93399162499918, 2.550011875000564, 2.37265162499898, 3.000448792001407, 2.4340360420010256, 2.5892664580005658, 2.4394271670007583, 2.5172002499984956, 2.1835620410001866, 3.271988832999341, 3.8392086249987187, 2.5387318339999183, 2.7328386250010226, 2.250497249999171, 1.9173062499994558, 4.022363457999745, 2.8730163749987696, 2.15594237500045, 3.233426666998639, 1.771866584000236, 1.9336985829995683]","[27.07443074999901, 8.050689790999968, 6.117644125000879, 2.9006871250003314, 1.2890154579999944, 3.43917062500077, 1.5396227090004686, 4.551878166999813, 2.739350124998964, 1.9841025410005386, 1.7226201670000592, 6.9841025000005175, 6.1727265839999745, 2.6895082920000277, 5.9339942909991805, 2.550014917000226, 2.372654208998938, 3.0004512920004345, 2.4340388330001588, 2.5892694579997624, 2.4394297920007375, 2.5172028339984536, 2.1835645829996793, 3.2719914999997854, 3.839211749998867, 2.538734833999115, 2.7328413750001346, 2.250499707999552, 1.917308416999731, 4.022366041999703, 2.8730190829992353, 2.155944833000831, 3.23342941699957, 1.771869374999369, 1.9337010830004147]",tanmayi,001,2022-11-10_10h57.33.940,lab-tut.7,2022.2.4,None,
0.1,1000,exp,2,11,35,9,233.79945033299919,234.78951933299868,234.78951933299868,234.78951933299868,space,2.1770819580015086,237.07235779166538,237.36526862499886,237.36526862499886,237.36526862499886,237.36526862499886,200,36,"[27.07442820899996, 8.05068695800037, 6.117641292001281, 2.9006843340011983, 1.2890127500013477, 3.4391683339999872, 1.539620166999157, 4.551875916999052, 2.739347832999556, 1.9841002080011094, 1.7226176250005665, 6.98409995899965, 6.172724250000101, 2.6895056670000486, 5.93399162499918, 2.550011875000564, 2.37265162499898, 3.000448792001407, 2.4340360420010256, 2.5892664580005658, 2.4394271670007583, 2.5172002499984956, 2.1835620410001866, 3.271988832999341, 3.8392086249987187, 2.5387318339999183, 2.7328386250010226, 2.250497249999171, 1.9173062499994558, 4.022363457999745, 2.8730163749987696, 2.15594237500045, 3.233426666998639, 1.771866584000236, 1.9336985829995683, 6.40088541699879]","[27.07443074999901, 8.050689790999968, 6.117644125000879, 2.9006871250003314, 1.2890154579999944, 3.43917062500077, 1.5396227090004686, 4.551878166999813, 2.739350124998964, 1.9841025410005386, 1.7226201670000592, 6.9841025000005175, 6.1727265839999745, 2.6895082920000277, 5.9339942909991805, 2.550014917000226, 2.372654208998938, 3.0004512920004345, 2.4340388330001588, 2.5892694579997624, 2.4394297920007375, 2.5172028339984536, 2.1835645829996793, 3.2719914999997854, 3.839211749998867, 2.538734833999115, 2.7328413750001346, 2.250499707999552, 1.917308416999731, 4.022366041999703, 2.8730190829992353, 2.155944833000831, 3.23342941699957, 1.771869374999369, 1.9337010830004147, 6.400888750000377]",tanmayi,001,2022-11-10_10h57.33.940,lab-tut.7,2022.2.4,None,
0.7,1000,exp,3,0,36,5,243.7659640419988,244.75606516699918,244.75606516699918,244.75606516699918,space,0.6217482080010086,246.08958708366688,246.3816152499985,246.3816152499985,246.3816152499985,246.3816152499985,200,37,"[27.07442820899996, 8.05068695800037, 6.117641292001281, 2.9006843340011983, 1.2890127500013477, 3.4391683339999872, 1.539620166999157, 4.551875916999052, 2.739347832999556, 1.9841002080011094, 1.7226176250005665, 6.98409995899965, 6.172724250000101, 2.6895056670000486, 5.93399162499918, 2.550011875000564, 2.37265162499898, 3.000448792001407, 2.4340360420010256, 2.5892664580005658, 2.4394271670007583, 2.5172002499984956, 2.1835620410001866, 3.271988832999341, 3.8392086249987187, 2.5387318339999183, 2.7328386250010226, 2.250497249999171, 1.9173062499994558, 4.022363457999745, 2.8730163749987696, 2.15594237500045, 3.233426666998639, 1.771866584000236, 1.9336985829995683, 6.40088541699879, 2.101165583000693]","[27.07443074999901, 8.050689790999968, 6.117644125000879, 2.9006871250003314, 1.2890154579999944, 3.43917062500077, 1.5396227090004686, 4.551878166999813, 2.739350124998964, 1.9841025410005386, 1.7226201670000592, 6.9841025000005175, 6.1727265839999745, 2.6895082920000277, 5.9339942909991805, 2.550014917000226, 2.372654208998938, 3.0004512920004345, 2.4340388330001588, 2.5892694579997624, 2.4394297920007375, 2.5172028339984536, 2.1835645829996793, 3.2719914999997854, 3.839211749998867, 2.538734833999115, 2.7328413750001346, 2.250499707999552, 1.917308416999731, 4.022366041999703, 2.8730190829992353, 2.155944833000831, 3.23342941699957, 1.771869374999369, 1.9337010830004147, 6.400888750000377, 2.1011679580005875]",tanmayi,001,2022-11-10_10h57.33.940,lab-tut.7,2022.2.4,None,
0.1,1000,exp,3,1,37,6,248.4830047919986,249.47316249999858,249.47316249999858,249.47316249999858,space,1.139283250002336,250.72265391666613,251.01591670800008,251.01591670800008,251.01591670800008,251.01591670800008,300,38,"[27.07442820899996, 8.05068695800037, 6.117641292001281, 2.9006843340011983, 1.2890127500013477, 3.4391683339999872, 1.539620166999157, 4.551875916999052, 2.739347832999556, 1.9841002080011094, 1.7226176250005665, 6.98409995899965, 6.172724250000101, 2.6895056670000486, 5.93399162499918, 2.550011875000564, 2.37265162499898, 3.000448792001407, 2.4340360420010256, 2.5892664580005658, 2.4394271670007583, 2.5172002499984956, 2.1835620410001866, 3.271988832999341, 3.8392086249987187, 2.5387318339999183, 2.7328386250010226, 2.250497249999171, 1.9173062499994558, 4.022363457999745, 2.8730163749987696, 2.15594237500045, 3.233426666998639, 1.771866584000236, 1.9336985829995683, 6.40088541699879, 2.101165583000693, 2.150731249999808]","[27.07443074999901, 8.050689790999968, 6.117644125000879, 2.9006871250003314, 1.2890154579999944, 3.43917062500077, 1.5396227090004686, 4.551878166999813, 2.739350124998964, 1.9841025410005386, 1.7226201670000592, 6.9841025000005175, 6.1727265839999745, 2.6895082920000277, 5.9339942909991805, 2.550014917000226, 2.372654208998938, 3.0004512920004345, 2.4340388330001588, 2.5892694579997624, 2.4394297920007375, 2.5172028339984536, 2.1835645829996793, 3.2719914999997854, 3.839211749998867, 2.538734833999115, 2.7328413750001346, 2.250499707999552, 1.917308416999731, 4.022366041999703, 2.8730190829992353, 2.155944833000831, 3.23342941699957, 1.771869374999369, 1.9337010830004147, 6.400888750000377, 2.1011679580005875, 2.150733666998349]",tanmayi,001,2022-11-10_10h57.33.940,lab-tut.7,2022.2.4,None,
0.1,1000,exp,3,2,38,3,253.1660292919987,254.15672116699898,254.15672116699898,254.15672116699898,space,0.26665304100060894,254.53337849966582,254.82785308299935,254.82785308299935,254.82785308299935,254.82785308299935,200,39,"[27.07442820899996, 8.05068695800037, 6.117641292001281, 2.9006843340011983, 1.2890127500013477, 3.4391683339999872, 1.539620166999157, 4.551875916999052, 2.739347832999556, 1.9841002080011094, 1.7226176250005665, 6.98409995899965, 6.172724250000101, 2.6895056670000486, 5.93399162499918, 2.550011875000564, 2.37265162499898, 3.000448792001407, 2.4340360420010256, 2.5892664580005658, 2.4394271670007583, 2.5172002499984956, 2.1835620410001866, 3.271988832999341, 3.8392086249987187, 2.5387318339999183, 2.7328386250010226, 2.250497249999171, 1.9173062499994558, 4.022363457999745, 2.8730163749987696, 2.15594237500045, 3.233426666998639, 1.771866584000236, 1.9336985829995683, 6.40088541699879, 2.101165583000693, 2.150731249999808, 1.5555168749997392]","[27.07443074999901, 8.050689790999968, 6.117644125000879, 2.9006871250003314, 1.2890154579999944, 3.43917062500077, 1.5396227090004686, 4.551878166999813, 2.739350124998964, 1.9841025410005386, 1.7226201670000592, 6.9841025000005175, 6.1727265839999745, 2.6895082920000277, 5.9339942909991805, 2.550014917000226, 2.372654208998938, 3.0004512920004345, 2.4340388330001588, 2.5892694579997624, 2.4394297920007375, 2.5172028339984536, 2.1835645829996793, 3.2719914999997854, 3.839211749998867, 2.538734833999115, 2.7328413750001346, 2.250499707999552, 1.917308416999731, 4.022366041999703, 2.8730190829992353, 2.155944833000831, 3.23342941699957, 1.771869374999369, 1.9337010830004147, 6.400888750000377, 2.1011679580005875, 2.150733666998349, 1.5555192089996126]",tanmayi,001,2022-11-10_10h57.33.940,lab-tut.7,2022.2.4,None,
0.7,1000,exp,3,3,39,11,256.3826585829993,257.3734421249992,257.3734421249992,257.3734421249992,space,0.25562075000016193,258.3333587086656,258.62779174999923,258.62779174999923,258.62779174999923,258.62779174999923,300,40,"[27.07442820899996, 8.05068695800037, 6.117641292001281, 2.9006843340011983, 1.2890127500013477, 3.4391683339999872, 1.539620166999157, 4.551875916999052, 2.739347832999556, 1.9841002080011094, 1.7226176250005665, 6.98409995899965, 6.172724250000101, 2.6895056670000486, 5.93399162499918, 2.550011875000564, 2.37265162499898, 3.000448792001407, 2.4340360420010256, 2.5892664580005658, 2.4394271670007583, 2.5172002499984956, 2.1835620410001866, 3.271988832999341, 3.8392086249987187, 2.5387318339999183, 2.7328386250010226, 2.250497249999171, 1.9173062499994558, 4.022363457999745, 2.8730163749987696, 2.15594237500045, 3.233426666998639, 1.771866584000236, 1.9336985829995683, 6.40088541699879, 2.101165583000693, 2.150731249999808, 1.5555168749997392, 1.639582750000045]","[27.07443074999901, 8.050689790999968, 6.117644125000879, 2.9006871250003314, 1.2890154579999944, 3.43917062500077, 1.5396227090004686, 4.551878166999813, 2.739350124998964, 1.9841025410005386, 1.7226201670000592, 6.9841025000005175, 6.1727265839999745, 2.6895082920000277, 5.9339942909991805, 2.550014917000226, 2.372654208998938, 3.0004512920004345, 2.4340388330001588, 2.5892694579997624, 2.4394297920007375, 2.5172028339984536, 2.1835645829996793, 3.2719914999997854, 3.839211749998867, 2.538734833999115, 2.7328413750001346, 2.250499707999552, 1.917308416999731, 4.022366041999703, 2.8730190829992353, 2.155944833000831, 3.23342941699957, 1.771869374999369, 1.9337010830004147, 6.400888750000377, 2.1011679580005875, 2.150733666998349, 1.5555192089996126, 1.6395858340001723]",tanmayi,001,2022-11-10_10h57.33.940,lab-tut.7,2022.2.4,None,
0.4,1000,exp,3,4,40,10,260.2668522499989,261.2565660829987,261.2565660829987,261.2565660829987,space,0.3123156250003376,261.9835702916664,,262.2790277919994,262.2790277919994,262.2790277919994,100,41,"[27.07442820899996, 8.05068695800037, 6.117641292001281, 2.9006843340011983, 1.2890127500013477, 3.4391683339999872, 1.539620166999157, 4.551875916999052, 2.739347832999556, 1.9841002080011094, 1.7226176250005665, 6.98409995899965, 6.172724250000101, 2.6895056670000486, 5.93399162499918, 2.550011875000564, 2.37265162499898, 3.000448792001407, 2.4340360420010256, 2.5892664580005658, 2.4394271670007583, 2.5172002499984956, 2.1835620410001866, 3.271988832999341, 3.8392086249987187, 2.5387318339999183, 2.7328386250010226, 2.250497249999171, 1.9173062499994558, 4.022363457999745, 2.8730163749987696, 2.15594237500045, 3.233426666998639, 1.771866584000236, 1.9336985829995683, 6.40088541699879, 2.101165583000693, 2.150731249999808, 1.5555168749997392, 1.639582750000045, 3.0725533749991882]","[27.07443074999901, 8.050689790999968, 6.117644125000879, 2.9006871250003314, 1.2890154579999944, 3.43917062500077, 1.5396227090004686, 4.551878166999813, 2.739350124998964, 1.9841025410005386, 1.7226201670000592, 6.9841025000005175, 6.1727265839999745, 2.6895082920000277, 5.9339942909991805, 2.550014917000226, 2.372654208998938, 3.0004512920004345, 2.4340388330001588, 2.5892694579997624, 2.4394297920007375, 2.5172028339984536, 2.1835645829996793, 3.2719914999997854, 3.839211749998867, 2.538734833999115, 2.7328413750001346, 2.250499707999552, 1.917308416999731, 4.022366041999703, 2.8730190829992353, 2.155944833000831, 3.23342941699957, 1.771869374999369, 1.9337010830004147, 6.400888750000377, 2.1011679580005875, 2.150733666998349, 1.5555192089996126, 1.6395858340001723, 3.072555958000521]",tanmayi,001,2022-11-10_10h57.33.940,lab-tut.7,2022.2.4,None,
0.4,1000,exp,3,5,41,4,265.3493936249997,266.3397557499993,266.3397557499993,266.3397557499993,space,0.28035054100109846,267.03352108366585,,267.3276087919985,267.3276087919985,267.3276087919985,100,42,"[27.07442820899996, 8.05068695800037, 6.117641292001281, 2.9006843340011983, 1.2890127500013477, 3.4391683339999872, 1.539620166999157, 4.551875916999052, 2.739347832999556, 1.9841002080011094, 1.7226176250005665, 6.98409995899965, 6.172724250000101, 2.6895056670000486, 5.93399162499918, 2.550011875000564, 2.37265162499898, 3.000448792001407, 2.4340360420010256, 2.5892664580005658, 2.4394271670007583, 2.5172002499984956, 2.1835620410001866, 3.271988832999341, 3.8392086249987187, 2.5387318339999183, 2.7328386250010226, 2.250497249999171, 1.9173062499994558, 4.022363457999745, 2.8730163749987696, 2.15594237500045, 3.233426666998639, 1.771866584000236, 1.9336985829995683, 6.40088541699879, 2.101165583000693, 2.150731249999808, 1.5555168749997392, 1.639582750000045, 3.0725533749991882, 1.6224270000002434]","[27.07443074999901, 8.050689790999968, 6.117644125000879, 2.9006871250003314, 1.2890154579999944, 3.43917062500077, 1.5396227090004686, 4.551878166999813, 2.739350124998964, 1.9841025410005386, 1.7226201670000592, 6.9841025000005175, 6.1727265839999745, 2.6895082920000277, 5.9339942909991805, 2.550014917000226, 2.372654208998938, 3.0004512920004345, 2.4340388330001588, 2.5892694579997624, 2.4394297920007375, 2.5172028339984536, 2.1835645829996793, 3.2719914999997854, 3.839211749998867, 2.538734833999115, 2.7328413750001346, 2.250499707999552, 1.917308416999731, 4.022366041999703, 2.8730190829992353, 2.155944833000831, 3.23342941699957, 1.771869374999369, 1.9337010830004147, 6.400888750000377, 2.1011679580005875, 2.150733666998349, 1.5555192089996126, 1.6395858340001723, 3.072555958000521, 1.6224294589992496]",tanmayi,001,2022-11-10_10h57.33.940,lab-tut.7,2022.2.4,None,
0.7,1000,exp,3,6,42,8,268.9494165420001,269.9403216669998,269.9403216669998,269.9403216669998,space,0.5273037080005452,271.1729112496653,,271.4656669999986,271.4656669999986,271.4656669999986,100,43,"[27.07442820899996, 8.05068695800037, 6.117641292001281, 2.9006843340011983, 1.2890127500013477, 3.4391683339999872, 1.539620166999157, 4.551875916999052, 2.739347832999556, 1.9841002080011094, 1.7226176250005665, 6.98409995899965, 6.172724250000101, 2.6895056670000486, 5.93399162499918, 2.550011875000564, 2.37265162499898, 3.000448792001407, 2.4340360420010256, 2.5892664580005658, 2.4394271670007583, 2.5172002499984956, 2.1835620410001866, 3.271988832999341, 3.8392086249987187, 2.5387318339999183, 2.7328386250010226, 2.250497249999171, 1.9173062499994558, 4.022363457999745, 2.8730163749987696, 2.15594237500045, 3.233426666998639, 1.771866584000236, 1.9336985829995683, 6.40088541699879, 2.101165583000693, 2.150731249999808, 1.5555168749997392, 1.639582750000045, 3.0725533749991882, 1.6224270000002434, 2.500125124999613]","[27.07443074999901, 8.050689790999968, 6.117644125000879, 2.9006871250003314, 1.2890154579999944, 3.43917062500077, 1.5396227090004686, 4.551878166999813, 2.739350124998964, 1.9841025410005386, 1.7226201670000592, 6.9841025000005175, 6.1727265839999745, 2.6895082920000277, 5.9339942909991805, 2.550014917000226, 2.372654208998938, 3.0004512920004345, 2.4340388330001588, 2.5892694579997624, 2.4394297920007375, 2.5172028339984536, 2.1835645829996793, 3.2719914999997854, 3.839211749998867, 2.538734833999115, 2.7328413750001346, 2.250499707999552, 1.917308416999731, 4.022366041999703, 2.8730190829992353, 2.155944833000831, 3.23342941699957, 1.771869374999369, 1.9337010830004147, 6.400888750000377, 2.1011679580005875, 2.150733666998349, 1.5555192089996126, 1.6395858340001723, 3.072555958000521, 1.6224294589992496, 2.500127834000523]",tanmayi,001,2022-11-10_10h57.33.940,lab-tut.7,2022.2.4,None,
0.1,1000,exp,3,7,43,9,273.9663617919996,274.95653537499857,274.95653537499857,274.95653537499857,space,0.8150794160028454,275.88321904166537,,276.1775171249992,276.1775171249992,276.1775171249992,100,44,"[27.07442820899996, 8.05068695800037, 6.117641292001281, 2.9006843340011983, 1.2890127500013477, 3.4391683339999872, 1.539620166999157, 4.551875916999052, 2.739347832999556, 1.9841002080011094, 1.7226176250005665, 6.98409995899965, 6.172724250000101, 2.6895056670000486, 5.93399162499918, 2.550011875000564, 2.37265162499898, 3.000448792001407, 2.4340360420010256, 2.5892664580005658, 2.4394271670007583, 2.5172002499984956, 2.1835620410001866, 3.271988832999341, 3.8392086249987187, 2.5387318339999183, 2.7328386250010226, 2.250497249999171, 1.9173062499994558, 4.022363457999745, 2.8730163749987696, 2.15594237500045, 3.233426666998639, 1.771866584000236, 1.9336985829995683, 6.40088541699879, 2.101165583000693, 2.150731249999808, 1.5555168749997392, 1.639582750000045, 3.0725533749991882, 1.6224270000002434, 2.500125124999613, 3.6723769170002925]","[27.07443074999901, 8.050689790999968, 6.117644125000879, 2.9006871250003314, 1.2890154579999944, 3.43917062500077, 1.5396227090004686, 4.551878166999813, 2.739350124998964, 1.9841025410005386, 1.7226201670000592, 6.9841025000005175, 6.1727265839999745, 2.6895082920000277, 5.9339942909991805, 2.550014917000226, 2.372654208998938, 3.0004512920004345, 2.4340388330001588, 2.5892694579997624, 2.4394297920007375, 2.5172028339984536, 2.1835645829996793, 3.2719914999997854, 3.839211749998867, 2.538734833999115, 2.7328413750001346, 2.250499707999552, 1.917308416999731, 4.022366041999703, 2.8730190829992353, 2.155944833000831, 3.23342941699957, 1.771869374999369, 1.9337010830004147, 6.400888750000377, 2.1011679580005875, 2.150733666998349, 1.5555192089996126, 1.6395858340001723, 3.072555958000521, 1.6224294589992496, 2.500127834000523, 3.6723795420002716]",tanmayi,001,2022-11-10_10h57.33.940,lab-tut.7,2022.2.4,None,
0.4,1000,exp,3,8,44,7,279.84938749999856,280.83950987499884,280.83950987499884,280.83950987499884,space,0.8439109160008229,282.0890358336658,,282.3846400829989,282.3846400829989,282.3846400829989,200,45,"[27.07442820899996, 8.05068695800037, 6.117641292001281, 2.9006843340011983, 1.2890127500013477, 3.4391683339999872, 1.539620166999157, 4.551875916999052, 2.739347832999556, 1.9841002080011094, 1.7226176250005665, 6.98409995899965, 6.172724250000101, 2.6895056670000486, 5.93399162499918, 2.550011875000564, 2.37265162499898, 3.000448792001407, 2.4340360420010256, 2.5892664580005658, 2.4394271670007583, 2.5172002499984956, 2.1835620410001866, 3.271988832999341, 3.8392086249987187, 2.5387318339999183, 2.7328386250010226, 2.250497249999171, 1.9173062499994558, 4.022363457999745, 2.8730163749987696, 2.15594237500045, 3.233426666998639, 1.771866584000236, 1.9336985829995683, 6.40088541699879, 2.101165583000693, 2.150731249999808, 1.5555168749997392, 1.639582750000045, 3.0725533749991882, 1.6224270000002434, 2.500125124999613, 3.6723769170002925, 2.0672130000002653]","[27.07443074999901, 8.050689790999968, 6.117644125000879, 2.9006871250003314, 1.2890154579999944, 3.43917062500077, 1.5396227090004686, 4.551878166999813, 2.739350124998964, 1.9841025410005386, 1.7226201670000592, 6.9841025000005175, 6.1727265839999745, 2.6895082920000277, 5.9339942909991805, 2.550014917000226, 2.372654208998938, 3.0004512920004345, 2.4340388330001588, 2.5892694579997624, 2.4394297920007375, 2.5172028339984536, 2.1835645829996793, 3.2719914999997854, 3.839211749998867, 2.538734833999115, 2.7328413750001346, 2.250499707999552, 1.917308416999731, 4.022366041999703, 2.8730190829992353, 2.155944833000831, 3.23342941699957, 1.771869374999369, 1.9337010830004147, 6.400888750000377, 2.1011679580005875, 2.150733666998349, 1.5555192089996126, 1.6395858340001723, 3.072555958000521, 1.6224294589992496, 2.500127834000523, 3.6723795420002716, 2.0672154580006463]",tanmayi,001,2022-11-10_10h57.33.940,lab-tut.7,2022.2.4,None,
0.7,400,unexp,3,9,45,2,284.4503351249987,285.4397690829992,285.4397690829992,285.4397690829992,space,0.7185202079999726,286.8725333336663,,287.16491145799955,287.16491145799955,287.16491145799955,400,46,"[27.07442820899996, 8.05068695800037, 6.117641292001281, 2.9006843340011983, 1.2890127500013477, 3.4391683339999872, 1.539620166999157, 4.551875916999052, 2.739347832999556, 1.9841002080011094, 1.7226176250005665, 6.98409995899965, 6.172724250000101, 2.6895056670000486, 5.93399162499918, 2.550011875000564, 2.37265162499898, 3.000448792001407, 2.4340360420010256, 2.5892664580005658, 2.4394271670007583, 2.5172002499984956, 2.1835620410001866, 3.271988832999341, 3.8392086249987187, 2.5387318339999183, 2.7328386250010226, 2.250497249999171, 1.9173062499994558, 4.022363457999745, 2.8730163749987696, 2.15594237500045, 3.233426666998639, 1.771866584000236, 1.9336985829995683, 6.40088541699879, 2.101165583000693, 2.150731249999808, 1.5555168749997392, 1.639582750000045, 3.0725533749991882, 1.6224270000002434, 2.500125124999613, 3.6723769170002925, 2.0672130000002653, 3.7007718330005446]","[27.07443074999901, 8.050689790999968, 6.117644125000879, 2.9006871250003314, 1.2890154579999944, 3.43917062500077, 1.5396227090004686, 4.551878166999813, 2.739350124998964, 1.9841025410005386, 1.7226201670000592, 6.9841025000005175, 6.1727265839999745, 2.6895082920000277, 5.9339942909991805, 2.550014917000226, 2.372654208998938, 3.0004512920004345, 2.4340388330001588, 2.5892694579997624, 2.4394297920007375, 2.5172028339984536, 2.1835645829996793, 3.2719914999997854, 3.839211749998867, 2.538734833999115, 2.7328413750001346, 2.250499707999552, 1.917308416999731, 4.022366041999703, 2.8730190829992353, 2.155944833000831, 3.23342941699957, 1.771869374999369, 1.9337010830004147, 6.400888750000377, 2.1011679580005875, 2.150733666998349, 1.5555192089996126, 1.6395858340001723, 3.072555958000521, 1.6224294589992496, 2.500127834000523, 3.6723795420002716, 2.0672154580006463, 3.7007743750000373]",tanmayi,001,2022-11-10_10h57.33.940,lab-tut.7,2022.2.4,None,
0.4,400,unexp,3,10,46,1,290.8660706669998,291.8559112080002,291.8559112080002,291.8559112080002,space,1.6834759580015088,293.95007591666604,294.24580412499927,294.24580412499927,294.24580412499927,294.24580412499927,300,47,"[27.07442820899996, 8.05068695800037, 6.117641292001281, 2.9006843340011983, 1.2890127500013477, 3.4391683339999872, 1.539620166999157, 4.551875916999052, 2.739347832999556, 1.9841002080011094, 1.7226176250005665, 6.98409995899965, 6.172724250000101, 2.6895056670000486, 5.93399162499918, 2.550011875000564, 2.37265162499898, 3.000448792001407, 2.4340360420010256, 2.5892664580005658, 2.4394271670007583, 2.5172002499984956, 2.1835620410001866, 3.271988832999341, 3.8392086249987187, 2.5387318339999183, 2.7328386250010226, 2.250497249999171, 1.9173062499994558, 4.022363457999745, 2.8730163749987696, 2.15594237500045, 3.233426666998639, 1.771866584000236, 1.9336985829995683, 6.40088541699879, 2.101165583000693, 2.150731249999808, 1.5555168749997392, 1.639582750000045, 3.0725533749991882, 1.6224270000002434, 2.500125124999613, 3.6723769170002925, 2.0672130000002653, 3.7007718330005446, 2.0727942920002533]","[27.07443074999901, 8.050689790999968, 6.117644125000879, 2.9006871250003314, 1.2890154579999944, 3.43917062500077, 1.5396227090004686, 4.551878166999813, 2.739350124998964, 1.9841025410005386, 1.7226201670000592, 6.9841025000005175, 6.1727265839999745, 2.6895082920000277, 5.9339942909991805, 2.550014917000226, 2.372654208998938, 3.0004512920004345, 2.4340388330001588, 2.5892694579997624, 2.4394297920007375, 2.5172028339984536, 2.1835645829996793, 3.2719914999997854, 3.839211749998867, 2.538734833999115, 2.7328413750001346, 2.250499707999552, 1.917308416999731, 4.022366041999703, 2.8730190829992353, 2.155944833000831, 3.23342941699957, 1.771869374999369, 1.9337010830004147, 6.400888750000377, 2.1011679580005875, 2.150733666998349, 1.5555192089996126, 1.6395858340001723, 3.072555958000521, 1.6224294589992496, 2.500127834000523, 3.6723795420002716, 2.0672154580006463, 3.7007743750000373, 2.07279729199945]",tanmayi,001,2022-11-10_10h57.33.940,lab-tut.7,2022.2.4,None,
0.1,400,unexp,3,11,47,0,296.3160871250002,297.30665724999926,297.30665724999926,297.30665724999926,space,0.9098512490018038,298.3340712086667,298.62586116700004,298.62586116700004,298.62586116700004,298.62586116700004,200,48,"[27.07442820899996, 8.05068695800037, 6.117641292001281, 2.9006843340011983, 1.2890127500013477, 3.4391683339999872, 1.539620166999157, 4.551875916999052, 2.739347832999556, 1.9841002080011094, 1.7226176250005665, 6.98409995899965, 6.172724250000101, 2.6895056670000486, 5.93399162499918, 2.550011875000564, 2.37265162499898, 3.000448792001407, 2.4340360420010256, 2.5892664580005658, 2.4394271670007583, 2.5172002499984956, 2.1835620410001866, 3.271988832999341, 3.8392086249987187, 2.5387318339999183, 2.7328386250010226, 2.250497249999171, 1.9173062499994558, 4.022363457999745, 2.8730163749987696, 2.15594237500045, 3.233426666998639, 1.771866584000236, 1.9336985829995683, 6.40088541699879, 2.101165583000693, 2.150731249999808, 1.5555168749997392, 1.639582750000045, 3.0725533749991882, 1.6224270000002434, 2.500125124999613, 3.6723769170002925, 2.0672130000002653, 3.7007718330005446, 2.0727942920002533, 4.473651999998765]","[27.07443074999901, 8.050689790999968, 6.117644125000879, 2.9006871250003314, 1.2890154579999944, 3.43917062500077, 1.5396227090004686, 4.551878166999813, 2.739350124998964, 1.9841025410005386, 1.7226201670000592, 6.9841025000005175, 6.1727265839999745, 2.6895082920000277, 5.9339942909991805, 2.550014917000226, 2.372654208998938, 3.0004512920004345, 2.4340388330001588, 2.5892694579997624, 2.4394297920007375, 2.5172028339984536, 2.1835645829996793, 3.2719914999997854, 3.839211749998867, 2.538734833999115, 2.7328413750001346, 2.250499707999552, 1.917308416999731, 4.022366041999703, 2.8730190829992353, 2.155944833000831, 3.23342941699957, 1.771869374999369, 1.9337010830004147, 6.400888750000377, 2.1011679580005875, 2.150733666998349, 1.5555192089996126, 1.6395858340001723, 3.072555958000521, 1.6224294589992496, 2.500127834000523, 3.6723795420002716, 2.0672154580006463, 3.7007743750000373, 2.07279729199945, 4.473654499999611]",tanmayi,001,2022-11-10_10h57.33.940,lab-tut.7,2022.2.4,None,
0.4,1000,exp,4,0,48,7,303.0996334579995,304.0895402919996,304.0895402919996,304.0895402919996,space,1.1105442920015776,305.6057804166669,305.899364375,305.899364375,305.899364375,305.899364375,400,49,"[27.07442820899996, 8.05068695800037, 6.117641292001281, 2.9006843340011983, 1.2890127500013477, 3.4391683339999872, 1.539620166999157, 4.551875916999052, 2.739347832999556, 1.9841002080011094, 1.7226176250005665, 6.98409995899965, 6.172724250000101, 2.6895056670000486, 5.93399162499918, 2.550011875000564, 2.37265162499898, 3.000448792001407, 2.4340360420010256, 2.5892664580005658, 2.4394271670007583, 2.5172002499984956, 2.1835620410001866, 3.271988832999341, 3.8392086249987187, 2.5387318339999183, 2.7328386250010226, 2.250497249999171, 1.9173062499994558, 4.022363457999745, 2.8730163749987696, 2.15594237500045, 3.233426666998639, 1.771866584000236, 1.9336985829995683, 6.40088541699879, 2.101165583000693, 2.150731249999808, 1.5555168749997392, 1.639582750000045, 3.0725533749991882, 1.6224270000002434, 2.500125124999613, 3.6723769170002925, 2.0672130000002653, 3.7007718330005446, 2.0727942920002533, 4.473651999998765, 1.7173856669996894]","[27.07443074999901, 8.050689790999968, 6.117644125000879, 2.9006871250003314, 1.2890154579999944, 3.43917062500077, 1.5396227090004686, 4.551878166999813, 2.739350124998964, 1.9841025410005386, 1.7226201670000592, 6.9841025000005175, 6.1727265839999745, 2.6895082920000277, 5.9339942909991805, 2.550014917000226, 2.372654208998938, 3.0004512920004345, 2.4340388330001588, 2.5892694579997624, 2.4394297920007375, 2.5172028339984536, 2.1835645829996793, 3.2719914999997854, 3.839211749998867, 2.538734833999115, 2.7328413750001346, 2.250499707999552, 1.917308416999731, 4.022366041999703, 2.8730190829992353, 2.155944833000831, 3.23342941699957, 1.771869374999369, 1.9337010830004147, 6.400888750000377, 2.1011679580005875, 2.150733666998349, 1.5555192089996126, 1.6395858340001723, 3.072555958000521, 1.6224294589992496, 2.500127834000523, 3.6723795420002716, 2.0672154580006463, 3.7007743750000373, 2.07279729199945, 4.473654499999611, 1.717388375000155]",tanmayi,001,2022-11-10_10h57.33.940,lab-tut.7,2022.2.4,None,
0.7,1000,exp,4,1,49,5,307.616272457999,308.60663699999895,308.60663699999895,308.60663699999895,space,0.6144282910026959,309.93361862466577,310.22769895799865,310.22769895799865,310.22769895799865,310.22769895799865,400,50,"[27.07442820899996, 8.05068695800037, 6.117641292001281, 2.9006843340011983, 1.2890127500013477, 3.4391683339999872, 1.539620166999157, 4.551875916999052, 2.739347832999556, 1.9841002080011094, 1.7226176250005665, 6.98409995899965, 6.172724250000101, 2.6895056670000486, 5.93399162499918, 2.550011875000564, 2.37265162499898, 3.000448792001407, 2.4340360420010256, 2.5892664580005658, 2.4394271670007583, 2.5172002499984956, 2.1835620410001866, 3.271988832999341, 3.8392086249987187, 2.5387318339999183, 2.7328386250010226, 2.250497249999171, 1.9173062499994558, 4.022363457999745, 2.8730163749987696, 2.15594237500045, 3.233426666998639, 1.771866584000236, 1.9336985829995683, 6.40088541699879, 2.101165583000693, 2.150731249999808, 1.5555168749997392, 1.639582750000045, 3.0725533749991882, 1.6224270000002434, 2.500125124999613, 3.6723769170002925, 2.0672130000002653, 3.7007718330005446, 2.0727942920002533, 4.473651999998765, 1.7173856669996894, 1.3229027090001182]","[27.07443074999901, 8.050689790999968, 6.117644125000879, 2.9006871250003314, 1.2890154579999944, 3.43917062500077, 1.5396227090004686, 4.551878166999813, 2.739350124998964, 1.9841025410005386, 1.7226201670000592, 6.9841025000005175, 6.1727265839999745, 2.6895082920000277, 5.9339942909991805, 2.550014917000226, 2.372654208998938, 3.0004512920004345, 2.4340388330001588, 2.5892694579997624, 2.4394297920007375, 2.5172028339984536, 2.1835645829996793, 3.2719914999997854, 3.839211749998867, 2.538734833999115, 2.7328413750001346, 2.250499707999552, 1.917308416999731, 4.022366041999703, 2.8730190829992353, 2.155944833000831, 3.23342941699957, 1.771869374999369, 1.9337010830004147, 6.400888750000377, 2.1011679580005875, 2.150733666998349, 1.5555192089996126, 1.6395858340001723, 3.072555958000521, 1.6224294589992496, 2.500127834000523, 3.6723795420002716, 2.0672154580006463, 3.7007743750000373, 2.07279729199945, 4.473654499999611, 1.717388375000155, 1.3229053750001185]",tanmayi,001,2022-11-10_10h57.33.940,lab-tut.7,2022.2.4,None,
0.1,1000,exp,4,2,50,6,311.5494019580001,312.53999241699967,312.53999241699967,312.53999241699967,space,2.9519032910011447,315.6169265836654,315.91060829199887,315.91060829199887,315.91060829199887,315.91060829199887,200,51,"[27.07442820899996, 8.05068695800037, 6.117641292001281, 2.9006843340011983, 1.2890127500013477, 3.4391683339999872, 1.539620166999157, 4.551875916999052, 2.739347832999556, 1.9841002080011094, 1.7226176250005665, 6.98409995899965, 6.172724250000101, 2.6895056670000486, 5.93399162499918, 2.550011875000564, 2.37265162499898, 3.000448792001407, 2.4340360420010256, 2.5892664580005658, 2.4394271670007583, 2.5172002499984956, 2.1835620410001866, 3.271988832999341, 3.8392086249987187, 2.5387318339999183, 2.7328386250010226, 2.250497249999171, 1.9173062499994558, 4.022363457999745, 2.8730163749987696, 2.15594237500045, 3.233426666998639, 1.771866584000236, 1.9336985829995683, 6.40088541699879, 2.101165583000693, 2.150731249999808, 1.5555168749997392, 1.639582750000045, 3.0725533749991882, 1.6224270000002434, 2.500125124999613, 3.6723769170002925, 2.0672130000002653, 3.7007718330005446, 2.0727942920002533, 4.473651999998765, 1.7173856669996894, 1.3229027090001182, 1.5725899170010962]","[27.07443074999901, 8.050689790999968, 6.117644125000879, 2.9006871250003314, 1.2890154579999944, 3.43917062500077, 1.5396227090004686, 4.551878166999813, 2.739350124998964, 1.9841025410005386, 1.7226201670000592, 6.9841025000005175, 6.1727265839999745, 2.6895082920000277, 5.9339942909991805, 2.550014917000226, 2.372654208998938, 3.0004512920004345, 2.4340388330001588, 2.5892694579997624, 2.4394297920007375, 2.5172028339984536, 2.1835645829996793, 3.2719914999997854, 3.839211749998867, 2.538734833999115, 2.7328413750001346, 2.250499707999552, 1.917308416999731, 4.022366041999703, 2.8730190829992353, 2.155944833000831, 3.23342941699957, 1.771869374999369, 1.9337010830004147, 6.400888750000377, 2.1011679580005875, 2.150733666998349, 1.5555192089996126, 1.6395858340001723, 3.072555958000521, 1.6224294589992496, 2.500127834000523, 3.6723795420002716, 2.0672154580006463, 3.7007743750000373, 2.07279729199945, 4.473654499999611, 1.717388375000155, 1.3229053750001185, 1.5725923749996582]",tanmayi,001,2022-11-10_10h57.33.940,lab-tut.7,2022.2.4,None,
0.1,1000,exp,4,3,51,3,317.48290587500014,318.4733017079998,318.4733017079998,318.4733017079998,space,1.3077979580011743,319.88733008366603,,320.1826711249996,320.1826711249996,320.1826711249996,100,52,"[27.07442820899996, 8.05068695800037, 6.117641292001281, 2.9006843340011983, 1.2890127500013477, 3.4391683339999872, 1.539620166999157, 4.551875916999052, 2.739347832999556, 1.9841002080011094, 1.7226176250005665, 6.98409995899965, 6.172724250000101, 2.6895056670000486, 5.93399162499918, 2.550011875000564, 2.37265162499898, 3.000448792001407, 2.4340360420010256, 2.5892664580005658, 2.4394271670007583, 2.5172002499984956, 2.1835620410001866, 3.271988832999341, 3.8392086249987187, 2.5387318339999183, 2.7328386250010226, 2.250497249999171, 1.9173062499994558, 4.022363457999745, 2.8730163749987696, 2.15594237500045, 3.233426666998639, 1.771866584000236, 1.9336985829995683, 6.40088541699879, 2.101165583000693, 2.150731249999808, 1.5555168749997392, 1.639582750000045, 3.0725533749991882, 1.6224270000002434, 2.500125124999613, 3.6723769170002925, 2.0672130000002653, 3.7007718330005446, 2.0727942920002533, 4.473651999998765, 1.7173856669996894, 1.3229027090001182, 1.5725899170010962, 1.284617708000951]","[27.07443074999901, 8.050689790999968, 6.117644125000879, 2.9006871250003314, 1.2890154579999944, 3.43917062500077, 1.5396227090004686, 4.551878166999813, 2.739350124998964, 1.9841025410005386, 1.7226201670000592, 6.9841025000005175, 6.1727265839999745, 2.6895082920000277, 5.9339942909991805, 2.550014917000226, 2.372654208998938, 3.0004512920004345, 2.4340388330001588, 2.5892694579997624, 2.4394297920007375, 2.5172028339984536, 2.1835645829996793, 3.2719914999997854, 3.839211749998867, 2.538734833999115, 2.7328413750001346, 2.250499707999552, 1.917308416999731, 4.022366041999703, 2.8730190829992353, 2.155944833000831, 3.23342941699957, 1.771869374999369, 1.9337010830004147, 6.400888750000377, 2.1011679580005875, 2.150733666998349, 1.5555192089996126, 1.6395858340001723, 3.072555958000521, 1.6224294589992496, 2.500127834000523, 3.6723795420002716, 2.0672154580006463, 3.7007743750000373, 2.07279729199945, 4.473654499999611, 1.717388375000155, 1.3229053750001185, 1.5725923749996582, 1.284620291000465]",tanmayi,001,2022-11-10_10h57.33.940,lab-tut.7,2022.2.4,None,
0.1,1000,exp,4,4,52,9,321.4660057919991,322.4565555419995,322.4565555419995,322.4565555419995,space,0.255648750000546,322.81641370866623,,323.1107240829988,323.1107240829988,323.1107240829988,100,53,"[27.07442820899996, 8.05068695800037, 6.117641292001281, 2.9006843340011983, 1.2890127500013477, 3.4391683339999872, 1.539620166999157, 4.551875916999052, 2.739347832999556, 1.9841002080011094, 1.7226176250005665, 6.98409995899965, 6.172724250000101, 2.6895056670000486, 5.93399162499918, 2.550011875000564, 2.37265162499898, 3.000448792001407, 2.4340360420010256, 2.5892664580005658, 2.4394271670007583, 2.5172002499984956, 2.1835620410001866, 3.271988832999341, 3.8392086249987187, 2.5387318339999183, 2.7328386250010226, 2.250497249999171, 1.9173062499994558, 4.022363457999745, 2.8730163749987696, 2.15594237500045, 3.233426666998639, 1.771866584000236, 1.9336985829995683, 6.40088541699879, 2.101165583000693, 2.150731249999808, 1.5555168749997392, 1.639582750000045, 3.0725533749991882, 1.6224270000002434, 2.500125124999613, 3.6723769170002925, 2.0672130000002653, 3.7007718330005446, 2.0727942920002533, 4.473651999998765, 1.7173856669996894, 1.3229027090001182, 1.5725899170010962, 1.284617708000951, 1.2395472080006584]","[27.07443074999901, 8.050689790999968, 6.117644125000879, 2.9006871250003314, 1.2890154579999944, 3.43917062500077, 1.5396227090004686, 4.551878166999813, 2.739350124998964, 1.9841025410005386, 1.7226201670000592, 6.9841025000005175, 6.1727265839999745, 2.6895082920000277, 5.9339942909991805, 2.550014917000226, 2.372654208998938, 3.0004512920004345, 2.4340388330001588, 2.5892694579997624, 2.4394297920007375, 2.5172028339984536, 2.1835645829996793, 3.2719914999997854, 3.839211749998867, 2.538734833999115, 2.7328413750001346, 2.250499707999552, 1.917308416999731, 4.022366041999703, 2.8730190829992353, 2.155944833000831, 3.23342941699957, 1.771869374999369, 1.9337010830004147, 6.400888750000377, 2.1011679580005875, 2.150733666998349, 1.5555192089996126, 1.6395858340001723, 3.072555958000521, 1.6224294589992496, 2.500127834000523, 3.6723795420002716, 2.0672154580006463, 3.7007743750000373, 2.07279729199945, 4.473654499999611, 1.717388375000155, 1.3229053750001185, 1.5725923749996582, 1.284620291000465, 1.2395495000000665]",tanmayi,001,2022-11-10_10h57.33.940,lab-tut.7,2022.2.4,None,
0.4,400,unexp,4,5,53,1,324.34937374999936,325.3395989169985,325.3395989169985,325.3395989169985,space,1.7672092910015635,327.51667724966524,327.8111199999985,327.8111199999985,327.8111199999985,327.8111199999985,200,54,"[27.07442820899996, 8.05068695800037, 6.117641292001281, 2.9006843340011983, 1.2890127500013477, 3.4391683339999872, 1.539620166999157, 4.551875916999052, 2.739347832999556, 1.9841002080011094, 1.7226176250005665, 6.98409995899965, 6.172724250000101, 2.6895056670000486, 5.93399162499918, 2.550011875000564, 2.37265162499898, 3.000448792001407, 2.4340360420010256, 2.5892664580005658, 2.4394271670007583, 2.5172002499984956, 2.1835620410001866, 3.271988832999341, 3.8392086249987187, 2.5387318339999183, 2.7328386250010226, 2.250497249999171, 1.9173062499994558, 4.022363457999745, 2.8730163749987696, 2.15594237500045, 3.233426666998639, 1.771866584000236, 1.9336985829995683, 6.40088541699879, 2.101165583000693, 2.150731249999808, 1.5555168749997392, 1.639582750000045, 3.0725533749991882, 1.6224270000002434, 2.500125124999613, 3.6723769170002925, 2.0672130000002653, 3.7007718330005446, 2.0727942920002533, 4.473651999998765, 1.7173856669996894, 1.3229027090001182, 1.5725899170010962, 1.284617708000951, 1.2395472080006584, 1.7386916670002392]","[27.07443074999901, 8.050689790999968, 6.117644125000879, 2.9006871250003314, 1.2890154579999944, 3.43917062500077, 1.5396227090004686, 4.551878166999813, 2.739350124998964, 1.9841025410005386, 1.7226201670000592, 6.9841025000005175, 6.1727265839999745, 2.6895082920000277, 5.9339942909991805, 2.550014917000226, 2.372654208998938, 3.0004512920004345, 2.4340388330001588, 2.5892694579997624, 2.4394297920007375, 2.5172028339984536, 2.1835645829996793, 3.2719914999997854, 3.839211749998867, 2.538734833999115, 2.7328413750001346, 2.250499707999552, 1.917308416999731, 4.022366041999703, 2.8730190829992353, 2.155944833000831, 3.23342941699957, 1.771869374999369, 1.9337010830004147, 6.400888750000377, 2.1011679580005875, 2.150733666998349, 1.5555192089996126, 1.6395858340001723, 3.072555958000521, 1.6224294589992496, 2.500127834000523, 3.6723795420002716, 2.0672154580006463, 3.7007743750000373, 2.07279729199945, 4.473654499999611, 1.717388375000155, 1.3229053750001185, 1.5725923749996582, 1.284620291000465, 1.2395495000000665, 1.7386946250007895]",tanmayi,001,2022-11-10_10h57.33.940,lab-tut.7,2022.2.4,None,
0.7,400,unexp,4,6,54,2,329.5495375419996,330.5394865419985,330.5394865419985,330.5394865419985,space,1.011715708000338,332.26644095866527,332.5607056249992,332.5607056249992,332.5607056249992,332.5607056249992,500,55,"[27.07442820899996, 8.05068695800037, 6.117641292001281, 2.9006843340011983, 1.2890127500013477, 3.4391683339999872, 1.539620166999157, 4.551875916999052, 2.739347832999556, 1.9841002080011094, 1.7226176250005665, 6.98409995899965, 6.172724250000101, 2.6895056670000486, 5.93399162499918, 2.550011875000564, 2.37265162499898, 3.000448792001407, 2.4340360420010256, 2.5892664580005658, 2.4394271670007583, 2.5172002499984956, 2.1835620410001866, 3.271988832999341, 3.8392086249987187, 2.5387318339999183, 2.7328386250010226, 2.250497249999171, 1.9173062499994558, 4.022363457999745, 2.8730163749987696, 2.15594237500045, 3.233426666998639, 1.771866584000236, 1.9336985829995683, 6.40088541699879, 2.101165583000693, 2.150731249999808, 1.5555168749997392, 1.639582750000045, 3.0725533749991882, 1.6224270000002434, 2.500125124999613, 3.6723769170002925, 2.0672130000002653, 3.7007718330005446, 2.0727942920002533, 4.473651999998765, 1.7173856669996894, 1.3229027090001182, 1.5725899170010962, 1.284617708000951, 1.2395472080006584, 1.7386916670002392, 1.8228949590011325]","[27.07443074999901, 8.050689790999968, 6.117644125000879, 2.9006871250003314, 1.2890154579999944, 3.43917062500077, 1.5396227090004686, 4.551878166999813, 2.739350124998964, 1.9841025410005386, 1.7226201670000592, 6.9841025000005175, 6.1727265839999745, 2.6895082920000277, 5.9339942909991805, 2.550014917000226, 2.372654208998938, 3.0004512920004345, 2.4340388330001588, 2.5892694579997624, 2.4394297920007375, 2.5172028339984536, 2.1835645829996793, 3.2719914999997854, 3.839211749998867, 2.538734833999115, 2.7328413750001346, 2.250499707999552, 1.917308416999731, 4.022366041999703, 2.8730190829992353, 2.155944833000831, 3.23342941699957, 1.771869374999369, 1.9337010830004147, 6.400888750000377, 2.1011679580005875, 2.150733666998349, 1.5555192089996126, 1.6395858340001723, 3.072555958000521, 1.6224294589992496, 2.500127834000523, 3.6723795420002716, 2.0672154580006463, 3.7007743750000373, 2.07279729199945, 4.473654499999611, 1.717388375000155, 1.3229053750001185, 1.5725923749996582, 1.284620291000465, 1.2395495000000665, 1.7386946250007895, 1.822897792000731]",tanmayi,001,2022-11-10_10h57.33.940,lab-tut.7,2022.2.4,None,
0.7,1000,exp,4,7,55,11,334.3826907499988,335.3732958749988,335.3732958749988,335.3732958749988,space,0.7013427920010145,336.78871466666556,,337.0823800829985,337.0823800829985,337.0823800829985,400,56,"[27.07442820899996, 8.05068695800037, 6.117641292001281, 2.9006843340011983, 1.2890127500013477, 3.4391683339999872, 1.539620166999157, 4.551875916999052, 2.739347832999556, 1.9841002080011094, 1.7226176250005665, 6.98409995899965, 6.172724250000101, 2.6895056670000486, 5.93399162499918, 2.550011875000564, 2.37265162499898, 3.000448792001407, 2.4340360420010256, 2.5892664580005658, 2.4394271670007583, 2.5172002499984956, 2.1835620410001866, 3.271988832999341, 3.8392086249987187, 2.5387318339999183, 2.7328386250010226, 2.250497249999171, 1.9173062499994558, 4.022363457999745, 2.8730163749987696, 2.15594237500045, 3.233426666998639, 1.771866584000236, 1.9336985829995683, 6.40088541699879, 2.101165583000693, 2.150731249999808, 1.5555168749997392, 1.639582750000045, 3.0725533749991882, 1.6224270000002434, 2.500125124999613, 3.6723769170002925, 2.0672130000002653, 3.7007718330005446, 2.0727942920002533, 4.473651999998765, 1.7173856669996894, 1.3229027090001182, 1.5725899170010962, 1.284617708000951, 1.2395472080006584, 1.7386916670002392, 1.8228949590011325, 1.9340840000004391]","[27.07443074999901, 8.050689790999968, 6.117644125000879, 2.9006871250003314, 1.2890154579999944, 3.43917062500077, 1.5396227090004686, 4.551878166999813, 2.739350124998964, 1.9841025410005386, 1.7226201670000592, 6.9841025000005175, 6.1727265839999745, 2.6895082920000277, 5.9339942909991805, 2.550014917000226, 2.372654208998938, 3.0004512920004345, 2.4340388330001588, 2.5892694579997624, 2.4394297920007375, 2.5172028339984536, 2.1835645829996793, 3.2719914999997854, 3.839211749998867, 2.538734833999115, 2.7328413750001346, 2.250499707999552, 1.917308416999731, 4.022366041999703, 2.8730190829992353, 2.155944833000831, 3.23342941699957, 1.771869374999369, 1.9337010830004147, 6.400888750000377, 2.1011679580005875, 2.150733666998349, 1.5555192089996126, 1.6395858340001723, 3.072555958000521, 1.6224294589992496, 2.500127834000523, 3.6723795420002716, 2.0672154580006463, 3.7007743750000373, 2.07279729199945, 4.473654499999611, 1.717388375000155, 1.3229053750001185, 1.5725923749996582, 1.284620291000465, 1.2395495000000665, 1.7386946250007895, 1.822897792000731, 1.934086916000524]",tanmayi,001,2022-11-10_10h57.33.940,lab-tut.7,2022.2.4,None,
0.7,1000,exp,4,8,56,8,339.01626124999893,340.00646329200026,340.00646329200026,340.00646329200026,space,0.3932908330025384,341.10597033366525,341.3987054169993,341.3987054169993,341.3987054169993,341.3987054169993,300,57,"[27.07442820899996, 8.05068695800037, 6.117641292001281, 2.9006843340011983, 1.2890127500013477, 3.4391683339999872, 1.539620166999157, 4.551875916999052, 2.739347832999556, 1.9841002080011094, 1.7226176250005665, 6.98409995899965, 6.172724250000101, 2.6895056670000486, 5.93399162499918, 2.550011875000564, 2.37265162499898, 3.000448792001407, 2.4340360420010256, 2.5892664580005658, 2.4394271670007583, 2.5172002499984956, 2.1835620410001866, 3.271988832999341, 3.8392086249987187, 2.5387318339999183, 2.7328386250010226, 2.250497249999171, 1.9173062499994558, 4.022363457999745, 2.8730163749987696, 2.15594237500045, 3.233426666998639, 1.771866584000236, 1.9336985829995683, 6.40088541699879, 2.101165583000693, 2.150731249999808, 1.5555168749997392, 1.639582750000045, 3.0725533749991882, 1.6224270000002434, 2.500125124999613, 3.6723769170002925, 2.0672130000002653, 3.7007718330005446, 2.0727942920002533, 4.473651999998765, 1.7173856669996894, 1.3229027090001182, 1.5725899170010962, 1.284617708000951, 1.2395472080006584, 1.7386916670002392, 1.8228949590011325, 1.9340840000004391, 3.2679729999999836]","[27.07443074999901, 8.050689790999968, 6.117644125000879, 2.9006871250003314, 1.2890154579999944, 3.43917062500077, 1.5396227090004686, 4.551878166999813, 2.739350124998964, 1.9841025410005386, 1.7226201670000592, 6.9841025000005175, 6.1727265839999745, 2.6895082920000277, 5.9339942909991805, 2.550014917000226, 2.372654208998938, 3.0004512920004345, 2.4340388330001588, 2.5892694579997624, 2.4394297920007375, 2.5172028339984536, 2.1835645829996793, 3.2719914999997854, 3.839211749998867, 2.538734833999115, 2.7328413750001346, 2.250499707999552, 1.917308416999731, 4.022366041999703, 2.8730190829992353, 2.155944833000831, 3.23342941699957, 1.771869374999369, 1.9337010830004147, 6.400888750000377, 2.1011679580005875, 2.150733666998349, 1.5555192089996126, 1.6395858340001723, 3.072555958000521, 1.6224294589992496, 2.500127834000523, 3.6723795420002716, 2.0672154580006463, 3.7007743750000373, 2.07279729199945, 4.473654499999611, 1.717388375000155, 1.3229053750001185, 1.5725923749996582, 1.284620291000465, 1.2395495000000665, 1.7386946250007895, 1.822897792000731, 1.934086916000524, 3.2679756249999627]",tanmayi,001,2022-11-10_10h57.33.940,lab-tut.7,2022.2.4,None,
0.4,1000,exp,4,9,57,4,344.66595416699965,345.65721250000024,345.65721250000024,345.65721250000024,space,0.2513710000021092,346.3224315836653,346.61521166700004,346.61521166700004,346.61521166700004,346.61521166700004,200,58,"[27.07442820899996, 8.05068695800037, 6.117641292001281, 2.9006843340011983, 1.2890127500013477, 3.4391683339999872, 1.539620166999157, 4.551875916999052, 2.739347832999556, 1.9841002080011094, 1.7226176250005665, 6.98409995899965, 6.172724250000101, 2.6895056670000486, 5.93399162499918, 2.550011875000564, 2.37265162499898, 3.000448792001407, 2.4340360420010256, 2.5892664580005658, 2.4394271670007583, 2.5172002499984956, 2.1835620410001866, 3.271988832999341, 3.8392086249987187, 2.5387318339999183, 2.7328386250010226, 2.250497249999171, 1.9173062499994558, 4.022363457999745, 2.8730163749987696, 2.15594237500045, 3.233426666998639, 1.771866584000236, 1.9336985829995683, 6.40088541699879, 2.101165583000693, 2.150731249999808, 1.5555168749997392, 1.639582750000045, 3.0725533749991882, 1.6224270000002434, 2.500125124999613, 3.6723769170002925, 2.0672130000002653, 3.7007718330005446, 2.0727942920002533, 4.473651999998765, 1.7173856669996894, 1.3229027090001182, 1.5725899170010962, 1.284617708000951, 1.2395472080006584, 1.7386916670002392, 1.8228949590011325, 1.9340840000004391, 3.2679729999999836, 1.3003384160001588]","[27.07443074999901, 8.050689790999968, 6.117644125000879, 2.9006871250003314, 1.2890154579999944, 3.43917062500077, 1.5396227090004686, 4.551878166999813, 2.739350124998964, 1.9841025410005386, 1.7226201670000592, 6.9841025000005175, 6.1727265839999745, 2.6895082920000277, 5.9339942909991805, 2.550014917000226, 2.372654208998938, 3.0004512920004345, 2.4340388330001588, 2.5892694579997624, 2.4394297920007375, 2.5172028339984536, 2.1835645829996793, 3.2719914999997854, 3.839211749998867, 2.538734833999115, 2.7328413750001346, 2.250499707999552, 1.917308416999731, 4.022366041999703, 2.8730190829992353, 2.155944833000831, 3.23342941699957, 1.771869374999369, 1.9337010830004147, 6.400888750000377, 2.1011679580005875, 2.150733666998349, 1.5555192089996126, 1.6395858340001723, 3.072555958000521, 1.6224294589992496, 2.500127834000523, 3.6723795420002716, 2.0672154580006463, 3.7007743750000373, 2.07279729199945, 4.473654499999611, 1.717388375000155, 1.3229053750001185, 1.5725923749996582, 1.284620291000465, 1.2395495000000665, 1.7386946250007895, 1.822897792000731, 1.934086916000524, 3.2679756249999627, 1.300340874999165]",tanmayi,001,2022-11-10_10h57.33.940,lab-tut.7,2022.2.4,None,
0.4,1000,exp,4,10,58,10,347.9163802080002,348.90680883299865,348.90680883299865,348.90680883299865,space,1.0672416250017704,350.38314870866657,350.67546670799857,350.67546670799857,350.67546670799857,350.67546670799857,200,59,"[27.07442820899996, 8.05068695800037, 6.117641292001281, 2.9006843340011983, 1.2890127500013477, 3.4391683339999872, 1.539620166999157, 4.551875916999052, 2.739347832999556, 1.9841002080011094, 1.7226176250005665, 6.98409995899965, 6.172724250000101, 2.6895056670000486, 5.93399162499918, 2.550011875000564, 2.37265162499898, 3.000448792001407, 2.4340360420010256, 2.5892664580005658, 2.4394271670007583, 2.5172002499984956, 2.1835620410001866, 3.271988832999341, 3.8392086249987187, 2.5387318339999183, 2.7328386250010226, 2.250497249999171, 1.9173062499994558, 4.022363457999745, 2.8730163749987696, 2.15594237500045, 3.233426666998639, 1.771866584000236, 1.9336985829995683, 6.40088541699879, 2.101165583000693, 2.150731249999808, 1.5555168749997392, 1.639582750000045, 3.0725533749991882, 1.6224270000002434, 2.500125124999613, 3.6723769170002925, 2.0672130000002653, 3.7007718330005446, 2.0727942920002533, 4.473651999998765, 1.7173856669996894, 1.3229027090001182, 1.5725899170010962, 1.284617708000951, 1.2395472080006584, 1.7386916670002392, 1.8228949590011325, 1.9340840000004391, 3.2679729999999836, 1.3003384160001588, 1.2571561250006198]","[27.07443074999901, 8.050689790999968, 6.117644125000879, 2.9006871250003314, 1.2890154579999944, 3.43917062500077, 1.5396227090004686, 4.551878166999813, 2.739350124998964, 1.9841025410005386, 1.7226201670000592, 6.9841025000005175, 6.1727265839999745, 2.6895082920000277, 5.9339942909991805, 2.550014917000226, 2.372654208998938, 3.0004512920004345, 2.4340388330001588, 2.5892694579997624, 2.4394297920007375, 2.5172028339984536, 2.1835645829996793, 3.2719914999997854, 3.839211749998867, 2.538734833999115, 2.7328413750001346, 2.250499707999552, 1.917308416999731, 4.022366041999703, 2.8730190829992353, 2.155944833000831, 3.23342941699957, 1.771869374999369, 1.9337010830004147, 6.400888750000377, 2.1011679580005875, 2.150733666998349, 1.5555192089996126, 1.6395858340001723, 3.072555958000521, 1.6224294589992496, 2.500127834000523, 3.6723795420002716, 2.0672154580006463, 3.7007743750000373, 2.07279729199945, 4.473654499999611, 1.717388375000155, 1.3229053750001185, 1.5725923749996582, 1.284620291000465, 1.2395495000000665, 1.7386946250007895, 1.822897792000731, 1.934086916000524, 3.2679756249999627, 1.300340874999165, 1.2571591249998164]",tanmayi,001,2022-11-10_10h57.33.940,lab-tut.7,2022.2.4,None,
0.1,400,unexp,4,11,59,0,351.9333299579994,352.92381670800023,352.92381670800023,352.92381670800023,space,0.6546911250006815,353.68326062466645,353.9780401249991,353.9780401249991,353.9780401249991,353.9780401249991,100,60,"[27.07442820899996, 8.05068695800037, 6.117641292001281, 2.9006843340011983, 1.2890127500013477, 3.4391683339999872, 1.539620166999157, 4.551875916999052, 2.739347832999556, 1.9841002080011094, 1.7226176250005665, 6.98409995899965, 6.172724250000101, 2.6895056670000486, 5.93399162499918, 2.550011875000564, 2.37265162499898, 3.000448792001407, 2.4340360420010256, 2.5892664580005658, 2.4394271670007583, 2.5172002499984956, 2.1835620410001866, 3.271988832999341, 3.8392086249987187, 2.5387318339999183, 2.7328386250010226, 2.250497249999171, 1.9173062499994558, 4.022363457999745, 2.8730163749987696, 2.15594237500045, 3.233426666998639, 1.771866584000236, 1.9336985829995683, 6.40088541699879, 2.101165583000693, 2.150731249999808, 1.5555168749997392, 1.639582750000045, 3.0725533749991882, 1.6224270000002434, 2.500125124999613, 3.6723769170002925, 2.0672130000002653, 3.7007718330005446, 2.0727942920002533, 4.473651999998765, 1.7173856669996894, 1.3229027090001182, 1.5725899170010962, 1.284617708000951, 1.2395472080006584, 1.7386916670002392, 1.8228949590011325, 1.9340840000004391, 3.2679729999999836, 1.3003384160001588, 1.2571561250006198, 2.3230274160014233]","[27.07443074999901, 8.050689790999968, 6.117644125000879, 2.9006871250003314, 1.2890154579999944, 3.43917062500077, 1.5396227090004686, 4.551878166999813, 2.739350124998964, 1.9841025410005386, 1.7226201670000592, 6.9841025000005175, 6.1727265839999745, 2.6895082920000277, 5.9339942909991805, 2.550014917000226, 2.372654208998938, 3.0004512920004345, 2.4340388330001588, 2.5892694579997624, 2.4394297920007375, 2.5172028339984536, 2.1835645829996793, 3.2719914999997854, 3.839211749998867, 2.538734833999115, 2.7328413750001346, 2.250499707999552, 1.917308416999731, 4.022366041999703, 2.8730190829992353, 2.155944833000831, 3.23342941699957, 1.771869374999369, 1.9337010830004147, 6.400888750000377, 2.1011679580005875, 2.150733666998349, 1.5555192089996126, 1.6395858340001723, 3.072555958000521, 1.6224294589992496, 2.500127834000523, 3.6723795420002716, 2.0672154580006463, 3.7007743750000373, 2.07279729199945, 4.473654499999611, 1.717388375000155, 1.3229053750001185, 1.5725923749996582, 1.284620291000465, 1.2395495000000665, 1.7386946250007895, 1.822897792000731, 1.934086916000524, 3.2679756249999627, 1.300340874999165, 1.2571591249998164, 2.3230297080008313]",tanmayi,001,2022-11-10_10h57.33.940,lab-tut.7,2022.2.4,None,
